# Single-trial N200 latencies, N200 amplitudes, RT, Accuracy, SNR condition, EEG Session Counter, Experiment, Session, True Subject Index
266.0000,1.2163,945.0000,1.0000,1.0000,0.0000,1.0000,1.0000,1.0000
235.0000,0.2929,773.0000,1.0000,1.0000,0.0000,1.0000,1.0000,1.0000
209.0000,1.7215,1505.0000,1.0000,1.0000,0.0000,1.0000,1.0000,1.0000
209.0000,0.7808,672.0000,0.0000,1.0000,0.0000,1.0000,1.0000,1.0000
249.0000,-1.0342,1079.0000,1.0000,0.0000,0.0000,1.0000,1.0000,1.0000
196.0000,1.2913,989.0000,1.0000,2.0000,0.0000,1.0000,1.0000,1.0000
175.0000,-0.0836,587.0000,1.0000,2.0000,0.0000,1.0000,1.0000,1.0000
271.0000,0.7185,512.0000,0.0000,0.0000,0.0000,1.0000,1.0000,1.0000
219.0000,1.7282,608.0000,1.0000,1.0000,0.0000,1.0000,1.0000,1.0000
248.0000,-0.3124,928.0000,1.0000,0.0000,0.0000,1.0000,1.0000,1.0000
241.0000,0.2250,883.0000,0.0000,0.0000,0.0000,1.0000,1.0000,1.0000
176.0000,1.1975,987.0000,0.0000,2.0000,0.0000,1.0000,1.0000,1.0000
185.0000,0.6519,1078.0000,0.0000,2.0000,0.0000,1.0000,1.0000,1.0000
242.0000,-1.3089,1118.0000,1.0000,0.0000,0.0000,1.0000,1.0000,1.0000
259.0000,1.8337,1083.0000,0.0000,1.0000,0.0000,1.0000,1.0000,1.0000
182.0000,0.3924,1197.0000,0.0000,2.0000,0.0000,1.0000,1.0000,1.0000
200.0000,1.1400,697.0000,1.0000,1.0000,0.0000,1.0000,1.0000,1.0000
188.0000,0.1499,737.0000,1.0000,0.0000,0.0000,1.0000,1.0000,1.0000
244.0000,1.5763,1061.0000,0.0000,1.0000,0.0000,1.0000,1.0000,1.0000
268.0000,1.3671,969.0000,0.0000,0.0000,0.0000,1.0000,1.0000,1.0000
206.0000,0.9980,897.0000,0.0000,1.0000,0.0000,1.0000,1.0000,1.0000
244.0000,0.9207,704.0000,1.0000,1.0000,0.0000,1.0000,1.0000,1.0000
192.0000,1.8714,1201.0000,0.0000,1.0000,0.0000,1.0000,1.0000,1.0000
194.0000,0.3198,875.0000,1.0000,0.0000,0.0000,1.0000,1.0000,1.0000
246.0000,2.6811,883.0000,1.0000,0.0000,0.0000,1.0000,1.0000,1.0000
229.0000,1.0890,588.0000,1.0000,1.0000,0.0000,1.0000,1.0000,1.0000
164.0000,1.0770,524.0000,1.0000,2.0000,0.0000,1.0000,1.0000,1.0000
244.0000,0.6750,919.0000,1.0000,1.0000,0.0000,1.0000,1.0000,1.0000
206.0000,1.0249,583.0000,1.0000,1.0000,0.0000,1.0000,1.0000,1.0000
172.0000,1.0471,583.0000,0.0000,2.0000,0.0000,1.0000,1.0000,1.0000
169.0000,-0.2934,513.0000,1.0000,2.0000,0.0000,1.0000,1.0000,1.0000
204.0000,1.0115,826.0000,1.0000,2.0000,0.0000,1.0000,1.0000,1.0000
169.0000,0.6415,763.0000,0.0000,2.0000,0.0000,1.0000,1.0000,1.0000
181.0000,1.0394,548.0000,0.0000,2.0000,0.0000,1.0000,1.0000,1.0000
235.0000,0.4124,1348.0000,1.0000,1.0000,0.0000,1.0000,1.0000,1.0000
200.0000,1.4804,1077.0000,0.0000,1.0000,0.0000,1.0000,1.0000,1.0000
180.0000,0.3630,1158.0000,0.0000,2.0000,0.0000,1.0000,1.0000,1.0000
210.0000,0.8449,1783.0000,1.0000,1.0000,0.0000,1.0000,1.0000,1.0000
267.0000,2.3658,780.0000,0.0000,0.0000,0.0000,1.0000,1.0000,1.0000
159.0000,1.3306,422.0000,0.0000,2.0000,0.0000,1.0000,1.0000,1.0000
225.0000,0.7209,687.0000,1.0000,1.0000,0.0000,1.0000,1.0000,1.0000
197.0000,2.1498,879.0000,1.0000,1.0000,0.0000,1.0000,1.0000,1.0000
207.0000,1.5219,1105.0000,0.0000,1.0000,0.0000,1.0000,1.0000,1.0000
168.0000,1.5334,524.0000,0.0000,2.0000,0.0000,1.0000,1.0000,1.0000
161.0000,1.6694,502.0000,1.0000,2.0000,0.0000,1.0000,1.0000,1.0000
195.0000,2.3301,1156.0000,0.0000,0.0000,0.0000,1.0000,1.0000,1.0000
185.0000,1.2129,734.0000,1.0000,2.0000,0.0000,1.0000,1.0000,1.0000
224.0000,1.7132,1040.0000,0.0000,0.0000,0.0000,1.0000,1.0000,1.0000
189.0000,0.8852,1120.0000,1.0000,2.0000,0.0000,1.0000,1.0000,1.0000
227.0000,2.9032,1050.0000,1.0000,1.0000,0.0000,1.0000,1.0000,1.0000
257.0000,1.2485,664.0000,1.0000,2.0000,0.0000,1.0000,1.0000,1.0000
159.0000,1.4378,442.0000,1.0000,2.0000,0.0000,1.0000,1.0000,1.0000
192.0000,0.3578,1087.0000,1.0000,1.0000,0.0000,1.0000,1.0000,1.0000
175.0000,0.6573,395.0000,0.0000,2.0000,0.0000,1.0000,1.0000,1.0000
195.0000,1.2494,916.0000,1.0000,1.0000,0.0000,1.0000,1.0000,1.0000
250.0000,1.1136,869.0000,1.0000,1.0000,0.0000,1.0000,1.0000,1.0000
202.0000,3.2337,800.0000,0.0000,0.0000,0.0000,1.0000,1.0000,1.0000
242.0000,1.2644,889.0000,0.0000,0.0000,0.0000,1.0000,1.0000,1.0000
236.0000,1.6718,970.0000,0.0000,0.0000,0.0000,1.0000,1.0000,1.0000
178.0000,1.2399,822.0000,1.0000,2.0000,0.0000,1.0000,1.0000,1.0000
173.0000,1.2208,388.0000,1.0000,2.0000,0.0000,1.0000,1.0000,1.0000
174.0000,1.2112,951.0000,1.0000,2.0000,0.0000,1.0000,1.0000,1.0000
245.0000,0.4021,697.0000,0.0000,0.0000,0.0000,1.0000,1.0000,1.0000
264.0000,2.1076,585.0000,1.0000,0.0000,0.0000,1.0000,1.0000,1.0000
212.0000,1.5024,607.0000,1.0000,1.0000,0.0000,1.0000,1.0000,1.0000
261.0000,0.2986,995.0000,0.0000,1.0000,0.0000,1.0000,1.0000,1.0000
208.0000,2.3329,701.0000,0.0000,1.0000,0.0000,1.0000,1.0000,1.0000
218.0000,2.2906,685.0000,0.0000,0.0000,0.0000,1.0000,1.0000,1.0000
169.0000,1.2443,813.0000,0.0000,2.0000,0.0000,1.0000,1.0000,1.0000
229.0000,1.9488,729.0000,1.0000,0.0000,0.0000,1.0000,1.0000,1.0000
170.0000,0.8561,475.0000,1.0000,2.0000,0.0000,1.0000,1.0000,1.0000
253.0000,1.5350,646.0000,1.0000,0.0000,0.0000,1.0000,1.0000,1.0000
174.0000,1.1143,727.0000,0.0000,2.0000,0.0000,1.0000,1.0000,1.0000
193.0000,1.1495,633.0000,0.0000,2.0000,0.0000,1.0000,1.0000,1.0000
169.0000,1.7310,712.0000,1.0000,2.0000,0.0000,1.0000,1.0000,1.0000
181.0000,1.1061,599.0000,1.0000,2.0000,0.0000,1.0000,1.0000,1.0000
180.0000,1.7198,672.0000,1.0000,2.0000,0.0000,1.0000,1.0000,1.0000
226.0000,0.7488,609.0000,1.0000,1.0000,0.0000,1.0000,1.0000,1.0000
155.0000,0.7672,922.0000,1.0000,2.0000,0.0000,1.0000,1.0000,1.0000
166.0000,1.3610,432.0000,1.0000,2.0000,0.0000,1.0000,1.0000,1.0000
173.0000,0.8377,994.0000,1.0000,2.0000,0.0000,1.0000,1.0000,1.0000
170.0000,1.8147,1048.0000,1.0000,2.0000,0.0000,1.0000,1.0000,1.0000
159.0000,1.6992,1072.0000,1.0000,2.0000,0.0000,1.0000,1.0000,1.0000
193.0000,1.0508,1249.0000,1.0000,1.0000,0.0000,1.0000,1.0000,1.0000
183.0000,2.8710,621.0000,1.0000,0.0000,0.0000,1.0000,1.0000,1.0000
260.0000,0.8388,476.0000,1.0000,0.0000,0.0000,1.0000,1.0000,1.0000
259.0000,2.2480,569.0000,1.0000,0.0000,0.0000,1.0000,1.0000,1.0000
210.0000,1.0178,1075.0000,1.0000,1.0000,0.0000,1.0000,1.0000,1.0000
170.0000,0.9312,686.0000,1.0000,2.0000,0.0000,1.0000,1.0000,1.0000
211.0000,0.7826,1322.0000,1.0000,0.0000,0.0000,1.0000,1.0000,1.0000
230.0000,1.2564,1325.0000,1.0000,1.0000,0.0000,1.0000,1.0000,1.0000
173.0000,0.9596,479.0000,1.0000,2.0000,0.0000,1.0000,1.0000,1.0000
164.0000,2.2951,973.0000,1.0000,0.0000,0.0000,1.0000,1.0000,1.0000
225.0000,0.5761,1302.0000,1.0000,1.0000,0.0000,1.0000,1.0000,1.0000
269.0000,0.7880,816.0000,1.0000,1.0000,0.0000,1.0000,1.0000,1.0000
228.0000,1.6626,656.0000,1.0000,0.0000,0.0000,1.0000,1.0000,1.0000
197.0000,1.8131,1397.0000,1.0000,1.0000,0.0000,1.0000,1.0000,1.0000
218.0000,3.5388,801.0000,0.0000,0.0000,0.0000,1.0000,1.0000,1.0000
266.0000,1.9576,715.0000,0.0000,0.0000,0.0000,1.0000,1.0000,1.0000
200.0000,1.6903,865.0000,1.0000,1.0000,0.0000,1.0000,1.0000,1.0000
160.0000,1.4364,918.0000,1.0000,2.0000,0.0000,1.0000,1.0000,1.0000
244.0000,2.2379,920.0000,1.0000,0.0000,0.0000,1.0000,1.0000,1.0000
201.0000,2.2745,983.0000,0.0000,0.0000,0.0000,1.0000,1.0000,1.0000
225.0000,3.2763,935.0000,0.0000,0.0000,0.0000,1.0000,1.0000,1.0000
170.0000,1.1936,936.0000,0.0000,2.0000,0.0000,1.0000,1.0000,1.0000
212.0000,0.9780,972.0000,1.0000,1.0000,0.0000,1.0000,1.0000,1.0000
178.0000,1.2208,670.0000,1.0000,2.0000,0.0000,1.0000,1.0000,1.0000
197.0000,1.7745,879.0000,0.0000,0.0000,0.0000,1.0000,1.0000,1.0000
167.0000,1.5129,705.0000,0.0000,2.0000,0.0000,1.0000,1.0000,1.0000
219.0000,2.0522,663.0000,1.0000,1.0000,0.0000,1.0000,1.0000,1.0000
190.0000,0.3908,840.0000,1.0000,1.0000,0.0000,1.0000,1.0000,1.0000
184.0000,1.1380,591.0000,0.0000,2.0000,0.0000,1.0000,1.0000,1.0000
240.0000,2.7258,1159.0000,0.0000,0.0000,0.0000,1.0000,1.0000,1.0000
180.0000,1.4533,704.0000,1.0000,1.0000,0.0000,1.0000,1.0000,1.0000
193.0000,1.6157,843.0000,1.0000,1.0000,0.0000,1.0000,1.0000,1.0000
211.0000,1.3025,683.0000,0.0000,1.0000,0.0000,1.0000,1.0000,1.0000
266.0000,2.3862,1128.0000,0.0000,0.0000,0.0000,1.0000,1.0000,1.0000
168.0000,0.9062,1246.0000,1.0000,2.0000,0.0000,1.0000,1.0000,1.0000
259.0000,1.2324,990.0000,1.0000,0.0000,0.0000,1.0000,1.0000,1.0000
247.0000,2.1720,1047.0000,0.0000,0.0000,0.0000,1.0000,1.0000,1.0000
213.0000,1.4450,1221.0000,0.0000,1.0000,0.0000,1.0000,1.0000,1.0000
167.0000,0.6506,610.0000,1.0000,1.0000,0.0000,1.0000,1.0000,1.0000
155.0000,0.5912,817.0000,1.0000,2.0000,0.0000,1.0000,1.0000,1.0000
166.0000,1.4889,986.0000,0.0000,1.0000,0.0000,1.0000,1.0000,1.0000
160.0000,1.2337,621.0000,0.0000,2.0000,0.0000,1.0000,1.0000,1.0000
221.0000,0.3174,1218.0000,1.0000,1.0000,0.0000,1.0000,1.0000,1.0000
166.0000,0.8376,674.0000,1.0000,2.0000,0.0000,1.0000,1.0000,1.0000
201.0000,1.4128,659.0000,1.0000,2.0000,0.0000,1.0000,1.0000,1.0000
233.0000,0.5308,1149.0000,0.0000,1.0000,0.0000,1.0000,1.0000,1.0000
234.0000,2.2139,800.0000,1.0000,0.0000,0.0000,1.0000,1.0000,1.0000
238.0000,3.6576,1096.0000,1.0000,0.0000,0.0000,1.0000,1.0000,1.0000
164.0000,1.3825,1272.0000,1.0000,2.0000,0.0000,1.0000,1.0000,1.0000
185.0000,1.8503,1338.0000,1.0000,1.0000,0.0000,1.0000,1.0000,1.0000
156.0000,1.3097,1161.0000,1.0000,2.0000,0.0000,1.0000,1.0000,1.0000
162.0000,1.1819,1313.0000,1.0000,2.0000,0.0000,1.0000,1.0000,1.0000
209.0000,1.8210,521.0000,1.0000,1.0000,0.0000,1.0000,1.0000,1.0000
263.0000,2.4075,609.0000,1.0000,0.0000,0.0000,1.0000,1.0000,1.0000
191.0000,1.5444,592.0000,1.0000,1.0000,0.0000,1.0000,1.0000,1.0000
171.0000,1.6727,780.0000,1.0000,2.0000,0.0000,1.0000,1.0000,1.0000
199.0000,0.4451,843.0000,1.0000,1.0000,0.0000,1.0000,1.0000,1.0000
249.0000,3.9696,637.0000,1.0000,0.0000,0.0000,1.0000,1.0000,1.0000
205.0000,1.4187,889.0000,1.0000,0.0000,0.0000,1.0000,1.0000,1.0000
180.0000,1.6027,791.0000,1.0000,2.0000,0.0000,1.0000,1.0000,1.0000
195.0000,1.4182,1131.0000,0.0000,1.0000,0.0000,1.0000,1.0000,1.0000
256.0000,1.3246,1164.0000,0.0000,0.0000,0.0000,1.0000,1.0000,1.0000
174.0000,0.9332,387.0000,1.0000,2.0000,0.0000,1.0000,1.0000,1.0000
197.0000,0.6464,608.0000,1.0000,1.0000,0.0000,1.0000,1.0000,1.0000
175.0000,1.0095,666.0000,1.0000,2.0000,0.0000,1.0000,1.0000,1.0000
210.0000,1.8089,775.0000,1.0000,1.0000,0.0000,1.0000,1.0000,1.0000
170.0000,2.2637,686.0000,1.0000,2.0000,0.0000,1.0000,1.0000,1.0000
256.0000,0.7106,669.0000,1.0000,0.0000,0.0000,1.0000,1.0000,1.0000
214.0000,0.1224,730.0000,1.0000,1.0000,0.0000,1.0000,1.0000,1.0000
240.0000,0.8865,797.0000,1.0000,1.0000,0.0000,1.0000,1.0000,1.0000
244.0000,0.5123,768.0000,0.0000,1.0000,0.0000,1.0000,1.0000,1.0000
231.0000,0.5256,733.0000,1.0000,0.0000,0.0000,1.0000,1.0000,1.0000
170.0000,0.5198,586.0000,1.0000,2.0000,0.0000,1.0000,1.0000,1.0000
183.0000,1.0072,1623.0000,0.0000,1.0000,0.0000,1.0000,1.0000,1.0000
164.0000,1.4570,652.0000,1.0000,2.0000,0.0000,1.0000,1.0000,1.0000
177.0000,1.4723,557.0000,1.0000,0.0000,0.0000,1.0000,1.0000,1.0000
164.0000,0.8206,424.0000,0.0000,1.0000,0.0000,1.0000,1.0000,1.0000
255.0000,2.8332,446.0000,1.0000,0.0000,0.0000,1.0000,1.0000,1.0000
206.0000,0.7890,1208.0000,0.0000,1.0000,0.0000,1.0000,1.0000,1.0000
196.0000,0.1650,761.0000,0.0000,1.0000,0.0000,1.0000,1.0000,1.0000
199.0000,0.6916,371.0000,1.0000,2.0000,0.0000,1.0000,1.0000,1.0000
170.0000,1.3522,413.0000,0.0000,2.0000,0.0000,1.0000,1.0000,1.0000
172.0000,1.0997,464.0000,0.0000,1.0000,0.0000,1.0000,1.0000,1.0000
199.0000,0.9537,722.0000,0.0000,0.0000,0.0000,1.0000,1.0000,1.0000
173.0000,0.7835,526.0000,1.0000,2.0000,0.0000,1.0000,1.0000,1.0000
179.0000,0.7166,683.0000,1.0000,1.0000,0.0000,1.0000,1.0000,1.0000
224.0000,2.5465,575.0000,1.0000,0.0000,0.0000,1.0000,1.0000,1.0000
247.0000,4.4913,573.0000,1.0000,0.0000,0.0000,1.0000,1.0000,1.0000
166.0000,0.9770,986.0000,0.0000,2.0000,0.0000,1.0000,1.0000,1.0000
206.0000,1.1694,564.0000,1.0000,1.0000,0.0000,1.0000,1.0000,1.0000
170.0000,1.6403,604.0000,0.0000,0.0000,0.0000,1.0000,1.0000,1.0000
152.0000,0.6258,456.0000,0.0000,2.0000,0.0000,1.0000,1.0000,1.0000
246.0000,2.3372,713.0000,1.0000,0.0000,0.0000,1.0000,1.0000,1.0000
161.0000,0.4684,665.0000,0.0000,2.0000,0.0000,1.0000,1.0000,1.0000
165.0000,1.9586,670.0000,0.0000,2.0000,0.0000,1.0000,1.0000,1.0000
154.0000,1.4703,847.0000,1.0000,1.0000,0.0000,1.0000,1.0000,1.0000
246.0000,2.0697,800.0000,1.0000,0.0000,0.0000,1.0000,1.0000,1.0000
210.0000,-1.2961,738.0000,1.0000,0.0000,0.0000,1.0000,1.0000,1.0000
195.0000,1.7807,583.0000,1.0000,1.0000,0.0000,1.0000,1.0000,1.0000
167.0000,1.5517,817.0000,1.0000,2.0000,0.0000,1.0000,1.0000,1.0000
202.0000,1.2621,969.0000,1.0000,1.0000,0.0000,1.0000,1.0000,1.0000
189.0000,0.4047,598.0000,1.0000,0.0000,0.0000,1.0000,1.0000,1.0000
197.0000,1.5800,968.0000,1.0000,1.0000,0.0000,1.0000,1.0000,1.0000
205.0000,1.8224,1449.0000,1.0000,1.0000,0.0000,1.0000,1.0000,1.0000
163.0000,1.7153,677.0000,1.0000,2.0000,0.0000,1.0000,1.0000,1.0000
260.0000,2.4543,885.0000,0.0000,0.0000,0.0000,1.0000,1.0000,1.0000
240.0000,3.9247,661.0000,0.0000,0.0000,0.0000,1.0000,1.0000,1.0000
167.0000,0.9180,798.0000,1.0000,1.0000,0.0000,1.0000,1.0000,1.0000
175.0000,0.4642,482.0000,1.0000,2.0000,0.0000,1.0000,1.0000,1.0000
219.0000,0.8014,937.0000,1.0000,1.0000,0.0000,1.0000,1.0000,1.0000
272.0000,1.5855,800.0000,1.0000,0.0000,0.0000,1.0000,1.0000,1.0000
180.0000,0.6611,514.0000,1.0000,2.0000,0.0000,1.0000,1.0000,1.0000
179.0000,1.3196,406.0000,1.0000,2.0000,0.0000,1.0000,1.0000,1.0000
164.0000,1.0615,456.0000,1.0000,2.0000,0.0000,1.0000,1.0000,1.0000
199.0000,1.3109,626.0000,1.0000,1.0000,0.0000,1.0000,1.0000,1.0000
167.0000,1.2480,649.0000,1.0000,2.0000,0.0000,1.0000,1.0000,1.0000
235.0000,0.6296,781.0000,0.0000,0.0000,0.0000,1.0000,1.0000,1.0000
167.0000,0.9464,496.0000,1.0000,2.0000,0.0000,1.0000,1.0000,1.0000
198.0000,0.9086,792.0000,1.0000,1.0000,0.0000,1.0000,1.0000,1.0000
241.0000,0.9943,616.0000,1.0000,0.0000,0.0000,1.0000,1.0000,1.0000
183.0000,0.9485,654.0000,0.0000,1.0000,0.0000,1.0000,1.0000,1.0000
169.0000,1.0026,638.0000,1.0000,2.0000,0.0000,1.0000,1.0000,1.0000
170.0000,0.0605,848.0000,1.0000,2.0000,0.0000,1.0000,1.0000,1.0000
193.0000,1.1676,653.0000,0.0000,1.0000,0.0000,1.0000,1.0000,1.0000
210.0000,2.6514,982.0000,1.0000,0.0000,0.0000,1.0000,1.0000,1.0000
173.0000,0.6100,497.0000,1.0000,2.0000,0.0000,1.0000,1.0000,1.0000
182.0000,1.3021,514.0000,1.0000,1.0000,0.0000,1.0000,1.0000,1.0000
185.0000,-0.7906,598.0000,0.0000,0.0000,0.0000,1.0000,1.0000,1.0000
180.0000,1.8213,487.0000,1.0000,1.0000,0.0000,1.0000,1.0000,1.0000
217.0000,1.2525,402.0000,0.0000,1.0000,0.0000,1.0000,1.0000,1.0000
172.0000,1.4759,777.0000,1.0000,2.0000,0.0000,1.0000,1.0000,1.0000
208.0000,-0.0468,879.0000,1.0000,2.0000,0.0000,1.0000,1.0000,1.0000
216.0000,1.4238,527.0000,1.0000,1.0000,0.0000,1.0000,1.0000,1.0000
233.0000,0.1957,964.0000,0.0000,0.0000,0.0000,1.0000,1.0000,1.0000
161.0000,2.5129,823.0000,1.0000,2.0000,0.0000,1.0000,1.0000,1.0000
167.0000,1.5854,473.0000,1.0000,2.0000,0.0000,1.0000,1.0000,1.0000
194.0000,1.0450,407.0000,1.0000,1.0000,0.0000,1.0000,1.0000,1.0000
172.0000,1.2707,968.0000,0.0000,2.0000,0.0000,1.0000,1.0000,1.0000
220.0000,1.5591,749.0000,0.0000,0.0000,0.0000,1.0000,1.0000,1.0000
206.0000,0.8138,950.0000,1.0000,1.0000,0.0000,1.0000,1.0000,1.0000
272.0000,2.2263,664.0000,1.0000,0.0000,0.0000,1.0000,1.0000,1.0000
161.0000,0.6771,409.0000,1.0000,2.0000,0.0000,1.0000,1.0000,1.0000
203.0000,2.5152,1112.0000,1.0000,0.0000,0.0000,1.0000,1.0000,1.0000
183.0000,1.9091,785.0000,1.0000,2.0000,0.0000,1.0000,1.0000,1.0000
214.0000,0.3601,798.0000,0.0000,0.0000,0.0000,1.0000,1.0000,1.0000
165.0000,0.4719,1123.0000,1.0000,2.0000,0.0000,1.0000,1.0000,1.0000
268.0000,3.0622,692.0000,1.0000,0.0000,0.0000,1.0000,1.0000,1.0000
170.0000,0.8412,1272.0000,0.0000,2.0000,0.0000,1.0000,1.0000,1.0000
172.0000,2.0431,567.0000,1.0000,2.0000,0.0000,1.0000,1.0000,1.0000
259.0000,3.0452,1152.0000,0.0000,0.0000,0.0000,1.0000,1.0000,1.0000
215.0000,1.2425,904.0000,0.0000,1.0000,0.0000,1.0000,1.0000,1.0000
196.0000,1.3157,504.0000,1.0000,1.0000,0.0000,1.0000,1.0000,1.0000
171.0000,0.7810,756.0000,1.0000,2.0000,0.0000,1.0000,1.0000,1.0000
161.0000,1.6235,622.0000,1.0000,2.0000,0.0000,1.0000,1.0000,1.0000
172.0000,0.9268,883.0000,0.0000,2.0000,0.0000,1.0000,1.0000,1.0000
163.0000,1.0692,646.0000,1.0000,2.0000,0.0000,1.0000,1.0000,1.0000
233.0000,1.5197,867.0000,0.0000,1.0000,0.0000,1.0000,1.0000,1.0000
214.0000,2.0297,620.0000,1.0000,1.0000,0.0000,1.0000,1.0000,1.0000
178.0000,1.3170,739.0000,1.0000,2.0000,0.0000,1.0000,1.0000,1.0000
170.0000,1.7867,1179.0000,1.0000,2.0000,0.0000,1.0000,1.0000,1.0000
167.0000,1.8535,408.0000,1.0000,2.0000,0.0000,1.0000,1.0000,1.0000
166.0000,0.8368,531.0000,1.0000,2.0000,0.0000,1.0000,1.0000,1.0000
189.0000,1.0337,851.0000,1.0000,1.0000,0.0000,1.0000,1.0000,1.0000
244.0000,1.7399,515.0000,1.0000,0.0000,0.0000,1.0000,1.0000,1.0000
242.0000,2.3387,754.0000,0.0000,0.0000,0.0000,1.0000,1.0000,1.0000
265.0000,2.7873,1048.0000,1.0000,0.0000,0.0000,1.0000,1.0000,1.0000
239.0000,1.0878,747.0000,1.0000,1.0000,0.0000,1.0000,1.0000,1.0000
178.0000,1.2139,445.0000,0.0000,1.0000,0.0000,1.0000,1.0000,1.0000
202.0000,0.6233,465.0000,1.0000,2.0000,0.0000,1.0000,1.0000,1.0000
172.0000,1.2672,1511.0000,1.0000,2.0000,0.0000,1.0000,1.0000,1.0000
230.0000,1.2142,550.0000,1.0000,1.0000,0.0000,1.0000,1.0000,1.0000
153.0000,1.4230,435.0000,1.0000,2.0000,0.0000,1.0000,1.0000,1.0000
202.0000,2.0945,834.0000,0.0000,0.0000,0.0000,1.0000,1.0000,1.0000
201.0000,2.7251,429.0000,1.0000,1.0000,0.0000,1.0000,1.0000,1.0000
212.0000,2.8391,503.0000,1.0000,0.0000,0.0000,1.0000,1.0000,1.0000
187.0000,1.1914,586.0000,1.0000,2.0000,0.0000,1.0000,1.0000,1.0000
219.0000,1.0959,469.0000,1.0000,1.0000,0.0000,1.0000,1.0000,1.0000
192.0000,0.8157,661.0000,1.0000,1.0000,0.0000,1.0000,1.0000,1.0000
220.0000,1.3596,444.0000,1.0000,1.0000,0.0000,1.0000,1.0000,1.0000
215.0000,2.0050,650.0000,1.0000,1.0000,0.0000,1.0000,1.0000,1.0000
250.0000,1.4646,708.0000,1.0000,1.0000,0.0000,1.0000,1.0000,1.0000
262.0000,2.2213,748.0000,1.0000,0.0000,0.0000,1.0000,1.0000,1.0000
203.0000,1.6730,930.0000,1.0000,1.0000,0.0000,1.0000,1.0000,1.0000
189.0000,2.0016,1354.0000,1.0000,1.0000,0.0000,1.0000,1.0000,1.0000
252.0000,1.7750,870.0000,0.0000,0.0000,0.0000,1.0000,1.0000,1.0000
152.0000,0.0964,468.0000,1.0000,2.0000,0.0000,1.0000,1.0000,1.0000
247.0000,0.4212,889.0000,1.0000,0.0000,0.0000,1.0000,1.0000,1.0000
171.0000,0.9080,1468.0000,1.0000,2.0000,0.0000,1.0000,1.0000,1.0000
178.0000,1.4246,1001.0000,1.0000,2.0000,0.0000,1.0000,1.0000,1.0000
193.0000,1.6070,564.0000,1.0000,1.0000,0.0000,1.0000,1.0000,1.0000
197.0000,2.2016,1027.0000,0.0000,0.0000,0.0000,1.0000,1.0000,1.0000
222.0000,1.5997,737.0000,1.0000,1.0000,0.0000,1.0000,1.0000,1.0000
258.0000,2.1956,806.0000,1.0000,1.0000,0.0000,1.0000,1.0000,1.0000
167.0000,0.8188,514.0000,1.0000,2.0000,0.0000,1.0000,1.0000,1.0000
206.0000,2.1635,705.0000,1.0000,0.0000,0.0000,1.0000,1.0000,1.0000
173.0000,0.9187,514.0000,1.0000,2.0000,0.0000,1.0000,1.0000,1.0000
162.0000,0.6157,435.0000,1.0000,2.0000,0.0000,1.0000,1.0000,1.0000
206.0000,0.8513,1698.0000,0.0000,2.0000,1.0000,1.0000,2.0000,1.0000
269.0000,1.2344,963.0000,0.0000,0.0000,1.0000,1.0000,2.0000,1.0000
259.0000,1.7179,1008.0000,1.0000,0.0000,1.0000,1.0000,2.0000,1.0000
266.0000,1.9758,1174.0000,1.0000,0.0000,1.0000,1.0000,2.0000,1.0000
162.0000,1.6504,1124.0000,1.0000,2.0000,1.0000,1.0000,2.0000,1.0000
216.0000,0.6888,443.0000,1.0000,1.0000,1.0000,1.0000,2.0000,1.0000
265.0000,0.6957,937.0000,0.0000,0.0000,1.0000,1.0000,2.0000,1.0000
156.0000,0.7577,819.0000,1.0000,2.0000,1.0000,1.0000,2.0000,1.0000
199.0000,1.3176,695.0000,0.0000,1.0000,1.0000,1.0000,2.0000,1.0000
251.0000,1.5155,1142.0000,0.0000,0.0000,1.0000,1.0000,2.0000,1.0000
172.0000,1.0975,767.0000,1.0000,2.0000,1.0000,1.0000,2.0000,1.0000
188.0000,0.8175,954.0000,1.0000,2.0000,1.0000,1.0000,2.0000,1.0000
174.0000,1.2981,615.0000,1.0000,2.0000,1.0000,1.0000,2.0000,1.0000
175.0000,0.4757,1962.0000,0.0000,0.0000,1.0000,1.0000,2.0000,1.0000
231.0000,-0.0036,761.0000,1.0000,0.0000,1.0000,1.0000,2.0000,1.0000
162.0000,0.6011,654.0000,1.0000,1.0000,1.0000,1.0000,2.0000,1.0000
171.0000,0.7734,513.0000,1.0000,1.0000,1.0000,1.0000,2.0000,1.0000
175.0000,0.0663,1034.0000,1.0000,2.0000,1.0000,1.0000,2.0000,1.0000
198.0000,1.5458,1156.0000,1.0000,1.0000,1.0000,1.0000,2.0000,1.0000
186.0000,1.9255,587.0000,1.0000,1.0000,1.0000,1.0000,2.0000,1.0000
158.0000,1.6960,467.0000,1.0000,1.0000,1.0000,1.0000,2.0000,1.0000
160.0000,0.9538,423.0000,1.0000,2.0000,1.0000,1.0000,2.0000,1.0000
167.0000,0.7478,374.0000,1.0000,2.0000,1.0000,1.0000,2.0000,1.0000
195.0000,0.0808,650.0000,1.0000,0.0000,1.0000,1.0000,2.0000,1.0000
168.0000,0.5005,548.0000,1.0000,1.0000,1.0000,1.0000,2.0000,1.0000
171.0000,1.0677,429.0000,0.0000,2.0000,1.0000,1.0000,2.0000,1.0000
160.0000,0.9439,650.0000,0.0000,1.0000,1.0000,1.0000,2.0000,1.0000
180.0000,0.3471,830.0000,1.0000,2.0000,1.0000,1.0000,2.0000,1.0000
196.0000,1.7903,856.0000,1.0000,1.0000,1.0000,1.0000,2.0000,1.0000
249.0000,0.5538,465.0000,1.0000,1.0000,1.0000,1.0000,2.0000,1.0000
267.0000,1.1377,978.0000,1.0000,2.0000,1.0000,1.0000,2.0000,1.0000
256.0000,0.0851,758.0000,1.0000,1.0000,1.0000,1.0000,2.0000,1.0000
153.0000,0.7838,404.0000,0.0000,2.0000,1.0000,1.0000,2.0000,1.0000
177.0000,0.9635,823.0000,1.0000,1.0000,1.0000,1.0000,2.0000,1.0000
242.0000,2.0993,674.0000,1.0000,0.0000,1.0000,1.0000,2.0000,1.0000
163.0000,1.1053,509.0000,1.0000,2.0000,1.0000,1.0000,2.0000,1.0000
170.0000,1.1216,875.0000,1.0000,2.0000,1.0000,1.0000,2.0000,1.0000
170.0000,0.6419,381.0000,0.0000,2.0000,1.0000,1.0000,2.0000,1.0000
185.0000,1.4142,723.0000,1.0000,1.0000,1.0000,1.0000,2.0000,1.0000
168.0000,0.1381,624.0000,1.0000,1.0000,1.0000,1.0000,2.0000,1.0000
159.0000,0.5392,1087.0000,0.0000,1.0000,1.0000,1.0000,2.0000,1.0000
167.0000,1.3870,627.0000,1.0000,1.0000,1.0000,1.0000,2.0000,1.0000
165.0000,1.4253,766.0000,1.0000,1.0000,1.0000,1.0000,2.0000,1.0000
273.0000,0.4750,782.0000,1.0000,1.0000,1.0000,1.0000,2.0000,1.0000
158.0000,0.9122,939.0000,1.0000,2.0000,1.0000,1.0000,2.0000,1.0000
168.0000,0.9020,484.0000,1.0000,1.0000,1.0000,1.0000,2.0000,1.0000
239.0000,1.1782,872.0000,1.0000,0.0000,1.0000,1.0000,2.0000,1.0000
165.0000,0.7179,1062.0000,0.0000,2.0000,1.0000,1.0000,2.0000,1.0000
254.0000,2.0427,657.0000,1.0000,0.0000,1.0000,1.0000,2.0000,1.0000
243.0000,0.9535,992.0000,1.0000,1.0000,1.0000,1.0000,2.0000,1.0000
227.0000,0.8223,501.0000,1.0000,1.0000,1.0000,1.0000,2.0000,1.0000
235.0000,0.4900,661.0000,0.0000,0.0000,1.0000,1.0000,2.0000,1.0000
237.0000,1.4529,515.0000,1.0000,1.0000,1.0000,1.0000,2.0000,1.0000
192.0000,1.3782,646.0000,1.0000,1.0000,1.0000,1.0000,2.0000,1.0000
160.0000,0.8164,708.0000,1.0000,2.0000,1.0000,1.0000,2.0000,1.0000
176.0000,1.8285,758.0000,0.0000,1.0000,1.0000,1.0000,2.0000,1.0000
259.0000,1.6231,1206.0000,0.0000,0.0000,1.0000,1.0000,2.0000,1.0000
164.0000,1.5682,455.0000,0.0000,2.0000,1.0000,1.0000,2.0000,1.0000
245.0000,0.5277,938.0000,0.0000,0.0000,1.0000,1.0000,2.0000,1.0000
168.0000,1.2077,464.0000,1.0000,2.0000,1.0000,1.0000,2.0000,1.0000
186.0000,1.8208,729.0000,1.0000,1.0000,1.0000,1.0000,2.0000,1.0000
269.0000,1.3182,839.0000,0.0000,0.0000,1.0000,1.0000,2.0000,1.0000
200.0000,0.4029,445.0000,1.0000,1.0000,1.0000,1.0000,2.0000,1.0000
243.0000,2.4716,550.0000,0.0000,0.0000,1.0000,1.0000,2.0000,1.0000
180.0000,0.9689,592.0000,0.0000,2.0000,1.0000,1.0000,2.0000,1.0000
202.0000,2.5818,786.0000,0.0000,0.0000,1.0000,1.0000,2.0000,1.0000
171.0000,1.1125,1382.0000,1.0000,2.0000,1.0000,1.0000,2.0000,1.0000
214.0000,1.4092,589.0000,0.0000,1.0000,1.0000,1.0000,2.0000,1.0000
186.0000,1.8745,739.0000,1.0000,1.0000,1.0000,1.0000,2.0000,1.0000
168.0000,0.6272,448.0000,1.0000,1.0000,1.0000,1.0000,2.0000,1.0000
211.0000,0.1079,653.0000,1.0000,0.0000,1.0000,1.0000,2.0000,1.0000
215.0000,1.0528,878.0000,0.0000,1.0000,1.0000,1.0000,2.0000,1.0000
168.0000,2.4463,696.0000,1.0000,1.0000,1.0000,1.0000,2.0000,1.0000
164.0000,1.2381,872.0000,0.0000,2.0000,1.0000,1.0000,2.0000,1.0000
201.0000,1.1300,471.0000,1.0000,1.0000,1.0000,1.0000,2.0000,1.0000
164.0000,0.9968,681.0000,1.0000,2.0000,1.0000,1.0000,2.0000,1.0000
262.0000,0.6446,702.0000,1.0000,0.0000,1.0000,1.0000,2.0000,1.0000
160.0000,1.3239,759.0000,1.0000,2.0000,1.0000,1.0000,2.0000,1.0000
272.0000,1.1929,710.0000,1.0000,0.0000,1.0000,1.0000,2.0000,1.0000
206.0000,0.3204,767.0000,0.0000,0.0000,1.0000,1.0000,2.0000,1.0000
183.0000,1.6514,703.0000,1.0000,1.0000,1.0000,1.0000,2.0000,1.0000
184.0000,1.2745,533.0000,1.0000,1.0000,1.0000,1.0000,2.0000,1.0000
231.0000,1.8696,735.0000,1.0000,0.0000,1.0000,1.0000,2.0000,1.0000
158.0000,0.5919,892.0000,0.0000,2.0000,1.0000,1.0000,2.0000,1.0000
170.0000,1.4178,941.0000,0.0000,2.0000,1.0000,1.0000,2.0000,1.0000
258.0000,1.8390,1071.0000,1.0000,0.0000,1.0000,1.0000,2.0000,1.0000
157.0000,1.5774,588.0000,1.0000,1.0000,1.0000,1.0000,2.0000,1.0000
191.0000,0.7833,703.0000,0.0000,0.0000,1.0000,1.0000,2.0000,1.0000
257.0000,2.9982,695.0000,1.0000,0.0000,1.0000,1.0000,2.0000,1.0000
233.0000,1.2678,775.0000,0.0000,1.0000,1.0000,1.0000,2.0000,1.0000
159.0000,0.2572,723.0000,1.0000,2.0000,1.0000,1.0000,2.0000,1.0000
169.0000,1.2695,582.0000,1.0000,2.0000,1.0000,1.0000,2.0000,1.0000
186.0000,0.8656,445.0000,1.0000,2.0000,1.0000,1.0000,2.0000,1.0000
197.0000,4.4869,1140.0000,1.0000,0.0000,1.0000,1.0000,2.0000,1.0000
175.0000,0.3939,433.0000,1.0000,2.0000,1.0000,1.0000,2.0000,1.0000
192.0000,2.1260,1069.0000,0.0000,0.0000,1.0000,1.0000,2.0000,1.0000
177.0000,1.4506,397.0000,1.0000,1.0000,1.0000,1.0000,2.0000,1.0000
184.0000,1.0826,597.0000,1.0000,2.0000,1.0000,1.0000,2.0000,1.0000
217.0000,1.3251,537.0000,1.0000,1.0000,1.0000,1.0000,2.0000,1.0000
167.0000,0.6966,635.0000,1.0000,2.0000,1.0000,1.0000,2.0000,1.0000
223.0000,2.6944,648.0000,0.0000,0.0000,1.0000,1.0000,2.0000,1.0000
161.0000,0.5309,547.0000,1.0000,2.0000,1.0000,1.0000,2.0000,1.0000
212.0000,3.0423,563.0000,0.0000,0.0000,1.0000,1.0000,2.0000,1.0000
201.0000,1.4659,681.0000,1.0000,1.0000,1.0000,1.0000,2.0000,1.0000
169.0000,0.1354,795.0000,1.0000,0.0000,1.0000,1.0000,2.0000,1.0000
166.0000,1.4365,540.0000,0.0000,2.0000,1.0000,1.0000,2.0000,1.0000
165.0000,1.2944,687.0000,1.0000,2.0000,1.0000,1.0000,2.0000,1.0000
175.0000,1.2474,697.0000,1.0000,1.0000,1.0000,1.0000,2.0000,1.0000
176.0000,1.3833,572.0000,1.0000,2.0000,1.0000,1.0000,2.0000,1.0000
173.0000,1.1385,522.0000,1.0000,2.0000,1.0000,1.0000,2.0000,1.0000
178.0000,1.5405,592.0000,1.0000,2.0000,1.0000,1.0000,2.0000,1.0000
188.0000,1.9982,605.0000,1.0000,1.0000,1.0000,1.0000,2.0000,1.0000
215.0000,2.7363,1000.0000,0.0000,0.0000,1.0000,1.0000,2.0000,1.0000
259.0000,0.3821,721.0000,1.0000,1.0000,1.0000,1.0000,2.0000,1.0000
162.0000,1.3296,534.0000,0.0000,2.0000,1.0000,1.0000,2.0000,1.0000
193.0000,1.1111,811.0000,1.0000,1.0000,1.0000,1.0000,2.0000,1.0000
183.0000,0.8708,577.0000,1.0000,1.0000,1.0000,1.0000,2.0000,1.0000
161.0000,1.2267,492.0000,1.0000,1.0000,1.0000,1.0000,2.0000,1.0000
252.0000,2.0148,975.0000,0.0000,0.0000,1.0000,1.0000,2.0000,1.0000
200.0000,1.9026,834.0000,1.0000,0.0000,1.0000,1.0000,2.0000,1.0000
162.0000,0.8418,405.0000,0.0000,2.0000,1.0000,1.0000,2.0000,1.0000
168.0000,1.2789,1379.0000,1.0000,2.0000,1.0000,1.0000,2.0000,1.0000
156.0000,1.4392,531.0000,1.0000,2.0000,1.0000,1.0000,2.0000,1.0000
191.0000,1.0488,824.0000,1.0000,1.0000,1.0000,1.0000,2.0000,1.0000
194.0000,2.5586,626.0000,1.0000,0.0000,1.0000,1.0000,2.0000,1.0000
161.0000,1.6138,439.0000,1.0000,2.0000,1.0000,1.0000,2.0000,1.0000
241.0000,1.7902,834.0000,0.0000,1.0000,1.0000,1.0000,2.0000,1.0000
195.0000,1.1731,772.0000,1.0000,2.0000,1.0000,1.0000,2.0000,1.0000
172.0000,1.0165,453.0000,0.0000,2.0000,1.0000,1.0000,2.0000,1.0000
268.0000,1.7021,712.0000,0.0000,0.0000,1.0000,1.0000,2.0000,1.0000
173.0000,1.2571,454.0000,0.0000,2.0000,1.0000,1.0000,2.0000,1.0000
160.0000,0.7981,595.0000,1.0000,2.0000,1.0000,1.0000,2.0000,1.0000
174.0000,1.1408,843.0000,1.0000,1.0000,1.0000,1.0000,2.0000,1.0000
173.0000,2.3412,383.0000,1.0000,1.0000,1.0000,1.0000,2.0000,1.0000
171.0000,1.5492,759.0000,0.0000,1.0000,1.0000,1.0000,2.0000,1.0000
162.0000,1.7713,496.0000,1.0000,2.0000,1.0000,1.0000,2.0000,1.0000
173.0000,1.5607,676.0000,1.0000,2.0000,1.0000,1.0000,2.0000,1.0000
238.0000,2.6263,933.0000,1.0000,0.0000,1.0000,1.0000,2.0000,1.0000
236.0000,1.0198,805.0000,0.0000,0.0000,1.0000,1.0000,2.0000,1.0000
165.0000,1.9200,604.0000,1.0000,2.0000,1.0000,1.0000,2.0000,1.0000
263.0000,1.1379,695.0000,1.0000,1.0000,1.0000,1.0000,2.0000,1.0000
199.0000,0.9090,547.0000,1.0000,0.0000,1.0000,1.0000,2.0000,1.0000
259.0000,2.6045,758.0000,1.0000,0.0000,1.0000,1.0000,2.0000,1.0000
203.0000,1.3693,459.0000,1.0000,1.0000,1.0000,1.0000,2.0000,1.0000
165.0000,1.1481,392.0000,1.0000,2.0000,1.0000,1.0000,2.0000,1.0000
236.0000,0.5063,790.0000,1.0000,0.0000,1.0000,1.0000,2.0000,1.0000
224.0000,1.7193,554.0000,1.0000,1.0000,1.0000,1.0000,2.0000,1.0000
228.0000,2.3466,728.0000,0.0000,0.0000,1.0000,1.0000,2.0000,1.0000
169.0000,1.8579,468.0000,1.0000,1.0000,1.0000,1.0000,2.0000,1.0000
173.0000,1.6834,452.0000,1.0000,2.0000,1.0000,1.0000,2.0000,1.0000
216.0000,0.5562,443.0000,1.0000,1.0000,1.0000,1.0000,2.0000,1.0000
174.0000,0.5325,532.0000,1.0000,2.0000,1.0000,1.0000,2.0000,1.0000
168.0000,0.9180,744.0000,1.0000,2.0000,1.0000,1.0000,2.0000,1.0000
238.0000,1.8279,1009.0000,1.0000,0.0000,1.0000,1.0000,2.0000,1.0000
157.0000,1.4878,743.0000,0.0000,1.0000,1.0000,1.0000,2.0000,1.0000
179.0000,0.9638,717.0000,1.0000,2.0000,1.0000,1.0000,2.0000,1.0000
200.0000,2.8882,771.0000,1.0000,1.0000,1.0000,1.0000,2.0000,1.0000
155.0000,0.8716,880.0000,1.0000,2.0000,1.0000,1.0000,2.0000,1.0000
238.0000,2.6963,827.0000,1.0000,0.0000,1.0000,1.0000,2.0000,1.0000
154.0000,1.0307,810.0000,1.0000,2.0000,1.0000,1.0000,2.0000,1.0000
204.0000,1.3441,1341.0000,0.0000,0.0000,1.0000,1.0000,2.0000,1.0000
177.0000,0.8621,895.0000,1.0000,2.0000,1.0000,1.0000,2.0000,1.0000
190.0000,0.7535,856.0000,1.0000,1.0000,1.0000,1.0000,2.0000,1.0000
197.0000,0.5581,964.0000,1.0000,1.0000,1.0000,1.0000,2.0000,1.0000
177.0000,1.8471,1009.0000,0.0000,2.0000,1.0000,1.0000,2.0000,1.0000
171.0000,0.9942,762.0000,0.0000,2.0000,1.0000,1.0000,2.0000,1.0000
163.0000,0.9819,936.0000,1.0000,2.0000,1.0000,1.0000,2.0000,1.0000
203.0000,0.9333,862.0000,1.0000,1.0000,1.0000,1.0000,2.0000,1.0000
155.0000,0.8157,965.0000,1.0000,1.0000,1.0000,1.0000,2.0000,1.0000
193.0000,1.8420,953.0000,1.0000,1.0000,1.0000,1.0000,2.0000,1.0000
250.0000,-0.8762,741.0000,0.0000,0.0000,1.0000,1.0000,2.0000,1.0000
195.0000,1.9102,684.0000,1.0000,1.0000,1.0000,1.0000,2.0000,1.0000
268.0000,0.8798,713.0000,1.0000,0.0000,1.0000,1.0000,2.0000,1.0000
225.0000,2.0303,588.0000,1.0000,0.0000,1.0000,1.0000,2.0000,1.0000
190.0000,4.1777,1041.0000,1.0000,0.0000,1.0000,1.0000,2.0000,1.0000
213.0000,1.5955,916.0000,0.0000,1.0000,1.0000,1.0000,2.0000,1.0000
155.0000,1.1269,585.0000,0.0000,2.0000,1.0000,1.0000,2.0000,1.0000
173.0000,0.2979,675.0000,1.0000,2.0000,1.0000,1.0000,2.0000,1.0000
253.0000,2.0727,826.0000,1.0000,0.0000,1.0000,1.0000,2.0000,1.0000
231.0000,0.9848,825.0000,1.0000,0.0000,1.0000,1.0000,2.0000,1.0000
195.0000,0.5042,607.0000,1.0000,1.0000,1.0000,1.0000,2.0000,1.0000
164.0000,2.3953,824.0000,1.0000,1.0000,1.0000,1.0000,2.0000,1.0000
165.0000,1.8587,495.0000,0.0000,2.0000,1.0000,1.0000,2.0000,1.0000
180.0000,1.4975,1029.0000,0.0000,1.0000,1.0000,1.0000,2.0000,1.0000
217.0000,0.6331,807.0000,1.0000,2.0000,1.0000,1.0000,2.0000,1.0000
163.0000,0.9150,715.0000,1.0000,2.0000,1.0000,1.0000,2.0000,1.0000
168.0000,0.4540,611.0000,1.0000,2.0000,1.0000,1.0000,2.0000,1.0000
258.0000,2.2816,677.0000,0.0000,0.0000,1.0000,1.0000,2.0000,1.0000
174.0000,0.9989,492.0000,1.0000,2.0000,1.0000,1.0000,2.0000,1.0000
244.0000,1.4366,759.0000,1.0000,0.0000,1.0000,1.0000,2.0000,1.0000
222.0000,1.8094,729.0000,1.0000,0.0000,1.0000,1.0000,2.0000,1.0000
206.0000,1.3102,515.0000,1.0000,1.0000,1.0000,1.0000,2.0000,1.0000
230.0000,0.4638,755.0000,1.0000,1.0000,1.0000,1.0000,2.0000,1.0000
216.0000,1.9347,804.0000,0.0000,0.0000,1.0000,1.0000,2.0000,1.0000
206.0000,0.3333,737.0000,0.0000,0.0000,1.0000,1.0000,2.0000,1.0000
163.0000,0.5832,637.0000,1.0000,2.0000,1.0000,1.0000,2.0000,1.0000
158.0000,2.0753,654.0000,1.0000,1.0000,1.0000,1.0000,2.0000,1.0000
169.0000,1.5285,525.0000,1.0000,2.0000,1.0000,1.0000,2.0000,1.0000
228.0000,0.4995,563.0000,1.0000,1.0000,1.0000,1.0000,2.0000,1.0000
162.0000,1.1816,661.0000,0.0000,2.0000,1.0000,1.0000,2.0000,1.0000
209.0000,0.5344,782.0000,1.0000,1.0000,1.0000,1.0000,2.0000,1.0000
162.0000,0.4882,413.0000,1.0000,2.0000,1.0000,1.0000,2.0000,1.0000
264.0000,3.1736,832.0000,0.0000,0.0000,1.0000,1.0000,2.0000,1.0000
186.0000,1.5562,620.0000,1.0000,1.0000,1.0000,1.0000,2.0000,1.0000
234.0000,0.5931,731.0000,0.0000,0.0000,1.0000,1.0000,2.0000,1.0000
184.0000,0.2344,662.0000,1.0000,0.0000,1.0000,1.0000,2.0000,1.0000
170.0000,1.5622,583.0000,0.0000,2.0000,1.0000,1.0000,2.0000,1.0000
254.0000,0.9560,677.0000,1.0000,2.0000,1.0000,1.0000,2.0000,1.0000
228.0000,1.6019,646.0000,1.0000,1.0000,1.0000,1.0000,2.0000,1.0000
182.0000,0.7401,1016.0000,0.0000,1.0000,1.0000,1.0000,2.0000,1.0000
262.0000,2.5894,650.0000,1.0000,0.0000,1.0000,1.0000,2.0000,1.0000
272.0000,3.0848,686.0000,0.0000,0.0000,1.0000,1.0000,2.0000,1.0000
254.0000,1.6125,693.0000,0.0000,1.0000,1.0000,1.0000,2.0000,1.0000
230.0000,0.7649,1207.0000,1.0000,1.0000,1.0000,1.0000,2.0000,1.0000
178.0000,1.4482,593.0000,1.0000,1.0000,1.0000,1.0000,2.0000,1.0000
190.0000,1.1265,627.0000,1.0000,1.0000,1.0000,1.0000,2.0000,1.0000
161.0000,0.6717,672.0000,1.0000,2.0000,1.0000,1.0000,2.0000,1.0000
159.0000,1.0806,529.0000,1.0000,2.0000,1.0000,1.0000,2.0000,1.0000
174.0000,0.8237,488.0000,1.0000,1.0000,1.0000,1.0000,2.0000,1.0000
164.0000,-0.1079,595.0000,1.0000,0.0000,1.0000,1.0000,2.0000,1.0000
165.0000,0.3600,604.0000,1.0000,2.0000,1.0000,1.0000,2.0000,1.0000
194.0000,0.4619,491.0000,0.0000,0.0000,1.0000,1.0000,2.0000,1.0000
272.0000,2.9221,842.0000,1.0000,0.0000,1.0000,1.0000,2.0000,1.0000
176.0000,1.5863,750.0000,0.0000,2.0000,1.0000,1.0000,2.0000,1.0000
258.0000,3.0883,803.0000,1.0000,0.0000,1.0000,1.0000,2.0000,1.0000
245.0000,1.6672,736.0000,0.0000,0.0000,1.0000,1.0000,2.0000,1.0000
261.0000,1.9325,790.0000,1.0000,0.0000,1.0000,1.0000,2.0000,1.0000
159.0000,0.3557,804.0000,1.0000,2.0000,1.0000,1.0000,2.0000,1.0000
161.0000,1.7235,553.0000,1.0000,2.0000,1.0000,1.0000,2.0000,1.0000
157.0000,1.5677,914.0000,0.0000,0.0000,1.0000,1.0000,2.0000,1.0000
259.0000,0.9431,811.0000,0.0000,0.0000,1.0000,1.0000,2.0000,1.0000
161.0000,0.8832,1285.0000,1.0000,2.0000,1.0000,1.0000,2.0000,1.0000
221.0000,1.1347,600.0000,1.0000,1.0000,1.0000,1.0000,2.0000,1.0000
236.0000,3.3645,871.0000,0.0000,0.0000,1.0000,1.0000,2.0000,1.0000
192.0000,3.0777,479.0000,1.0000,1.0000,1.0000,1.0000,2.0000,1.0000
175.0000,2.1633,615.0000,1.0000,2.0000,1.0000,1.0000,2.0000,1.0000
193.0000,1.1530,620.0000,1.0000,1.0000,1.0000,1.0000,2.0000,1.0000
162.0000,0.6788,716.0000,1.0000,2.0000,1.0000,1.0000,2.0000,1.0000
162.0000,1.7253,515.0000,1.0000,2.0000,1.0000,1.0000,2.0000,1.0000
178.0000,1.8626,568.0000,1.0000,1.0000,1.0000,1.0000,2.0000,1.0000
262.0000,1.2547,1090.0000,1.0000,0.0000,1.0000,1.0000,2.0000,1.0000
166.0000,1.6080,784.0000,1.0000,2.0000,1.0000,1.0000,2.0000,1.0000
235.0000,1.8588,649.0000,0.0000,0.0000,1.0000,1.0000,2.0000,1.0000
171.0000,1.3817,579.0000,1.0000,2.0000,1.0000,1.0000,2.0000,1.0000
159.0000,0.5886,468.0000,1.0000,2.0000,1.0000,1.0000,2.0000,1.0000
267.0000,1.1349,1189.0000,1.0000,1.0000,1.0000,1.0000,2.0000,1.0000
156.0000,1.0423,495.0000,1.0000,1.0000,1.0000,1.0000,2.0000,1.0000
176.0000,1.2183,658.0000,1.0000,1.0000,1.0000,1.0000,2.0000,1.0000
212.0000,1.0729,612.0000,1.0000,1.0000,1.0000,1.0000,2.0000,1.0000
159.0000,4.0344,638.0000,1.0000,0.0000,1.0000,1.0000,2.0000,1.0000
168.0000,0.7431,949.0000,1.0000,2.0000,1.0000,1.0000,2.0000,1.0000
236.0000,2.6489,1019.0000,0.0000,0.0000,1.0000,1.0000,2.0000,1.0000
173.0000,1.8727,880.0000,1.0000,2.0000,1.0000,1.0000,2.0000,1.0000
184.0000,1.9019,738.0000,1.0000,2.0000,1.0000,1.0000,2.0000,1.0000
204.0000,1.9391,788.0000,1.0000,0.0000,1.0000,1.0000,2.0000,1.0000
164.0000,1.1925,525.0000,0.0000,2.0000,1.0000,1.0000,2.0000,1.0000
189.0000,1.4992,790.0000,1.0000,1.0000,1.0000,1.0000,2.0000,1.0000
252.0000,0.8466,624.0000,0.0000,0.0000,1.0000,1.0000,2.0000,1.0000
226.0000,1.6565,585.0000,1.0000,0.0000,1.0000,1.0000,2.0000,1.0000
167.0000,1.7320,770.0000,1.0000,1.0000,1.0000,1.0000,2.0000,1.0000
184.0000,1.6677,665.0000,1.0000,1.0000,1.0000,1.0000,2.0000,1.0000
156.0000,0.5430,777.0000,1.0000,2.0000,1.0000,1.0000,2.0000,1.0000
230.0000,1.1651,746.0000,1.0000,1.0000,1.0000,1.0000,2.0000,1.0000
155.0000,0.6038,646.0000,1.0000,2.0000,1.0000,1.0000,2.0000,1.0000
176.0000,1.0431,530.0000,1.0000,2.0000,1.0000,1.0000,2.0000,1.0000
176.0000,1.7866,846.0000,1.0000,2.0000,1.0000,1.0000,2.0000,1.0000
236.0000,2.1603,800.0000,1.0000,1.0000,1.0000,1.0000,2.0000,1.0000
251.0000,2.4379,563.0000,1.0000,0.0000,1.0000,1.0000,2.0000,1.0000
167.0000,0.8397,835.0000,0.0000,1.0000,1.0000,1.0000,2.0000,1.0000
270.0000,0.7714,857.0000,1.0000,0.0000,1.0000,1.0000,2.0000,1.0000
193.0000,0.6012,903.0000,0.0000,0.0000,1.0000,1.0000,2.0000,1.0000
220.0000,2.1637,522.0000,1.0000,1.0000,1.0000,1.0000,2.0000,1.0000
187.0000,1.6099,704.0000,1.0000,1.0000,1.0000,1.0000,2.0000,1.0000
198.0000,2.8155,636.0000,1.0000,1.0000,1.0000,1.0000,2.0000,1.0000
161.0000,1.0208,728.0000,0.0000,2.0000,1.0000,1.0000,2.0000,1.0000
170.0000,1.2427,498.0000,1.0000,2.0000,1.0000,1.0000,2.0000,1.0000
163.0000,1.1877,471.0000,1.0000,2.0000,1.0000,1.0000,2.0000,1.0000
194.0000,2.1489,904.0000,1.0000,1.0000,1.0000,1.0000,2.0000,1.0000
170.0000,0.4261,929.0000,0.0000,2.0000,9.0000,1.0000,1.0000,2.0000
160.0000,2.3669,1018.0000,1.0000,1.0000,9.0000,1.0000,1.0000,2.0000
163.0000,1.0598,832.0000,0.0000,2.0000,9.0000,1.0000,1.0000,2.0000
233.0000,0.9290,904.0000,1.0000,1.0000,9.0000,1.0000,1.0000,2.0000
159.0000,1.2640,1265.0000,1.0000,2.0000,9.0000,1.0000,1.0000,2.0000
152.0000,-0.4700,761.0000,1.0000,0.0000,9.0000,1.0000,1.0000,2.0000
212.0000,0.7147,913.0000,0.0000,2.0000,9.0000,1.0000,1.0000,2.0000
154.0000,0.7465,994.0000,1.0000,2.0000,9.0000,1.0000,1.0000,2.0000
186.0000,-0.4431,853.0000,1.0000,2.0000,9.0000,1.0000,1.0000,2.0000
231.0000,0.7170,729.0000,1.0000,2.0000,9.0000,1.0000,1.0000,2.0000
215.0000,1.0875,891.0000,0.0000,2.0000,9.0000,1.0000,1.0000,2.0000
200.0000,1.9695,805.0000,1.0000,0.0000,9.0000,1.0000,1.0000,2.0000
155.0000,2.0867,730.0000,1.0000,2.0000,9.0000,1.0000,1.0000,2.0000
178.0000,1.6559,700.0000,1.0000,1.0000,9.0000,1.0000,1.0000,2.0000
159.0000,0.8490,1039.0000,1.0000,2.0000,9.0000,1.0000,1.0000,2.0000
248.0000,-0.2677,1242.0000,0.0000,0.0000,9.0000,1.0000,1.0000,2.0000
203.0000,1.2626,708.0000,1.0000,1.0000,9.0000,1.0000,1.0000,2.0000
181.0000,1.6006,771.0000,1.0000,1.0000,9.0000,1.0000,1.0000,2.0000
156.0000,1.4928,1467.0000,1.0000,2.0000,9.0000,1.0000,1.0000,2.0000
196.0000,0.4263,514.0000,1.0000,2.0000,9.0000,1.0000,1.0000,2.0000
255.0000,-0.7345,644.0000,0.0000,0.0000,9.0000,1.0000,1.0000,2.0000
212.0000,-0.2051,658.0000,1.0000,1.0000,9.0000,1.0000,1.0000,2.0000
196.0000,1.4529,692.0000,1.0000,1.0000,9.0000,1.0000,1.0000,2.0000
253.0000,3.2599,998.0000,1.0000,0.0000,9.0000,1.0000,1.0000,2.0000
178.0000,1.8345,818.0000,1.0000,0.0000,9.0000,1.0000,1.0000,2.0000
208.0000,2.8694,749.0000,0.0000,1.0000,9.0000,1.0000,1.0000,2.0000
161.0000,1.1581,818.0000,1.0000,2.0000,9.0000,1.0000,1.0000,2.0000
237.0000,2.8118,575.0000,0.0000,0.0000,9.0000,1.0000,1.0000,2.0000
217.0000,0.9180,792.0000,1.0000,1.0000,9.0000,1.0000,1.0000,2.0000
258.0000,1.3267,917.0000,1.0000,2.0000,9.0000,1.0000,1.0000,2.0000
160.0000,1.0341,689.0000,1.0000,0.0000,9.0000,1.0000,1.0000,2.0000
234.0000,0.1061,888.0000,1.0000,0.0000,9.0000,1.0000,1.0000,2.0000
190.0000,1.3290,704.0000,0.0000,2.0000,9.0000,1.0000,1.0000,2.0000
246.0000,0.7535,1231.0000,1.0000,2.0000,9.0000,1.0000,1.0000,2.0000
186.0000,0.7526,720.0000,0.0000,1.0000,9.0000,1.0000,1.0000,2.0000
202.0000,1.2469,789.0000,1.0000,2.0000,9.0000,1.0000,1.0000,2.0000
180.0000,1.8900,957.0000,0.0000,1.0000,9.0000,1.0000,1.0000,2.0000
160.0000,1.0739,1025.0000,0.0000,2.0000,9.0000,1.0000,1.0000,2.0000
261.0000,1.1019,755.0000,0.0000,0.0000,9.0000,1.0000,1.0000,2.0000
235.0000,2.8397,887.0000,0.0000,1.0000,9.0000,1.0000,1.0000,2.0000
202.0000,0.4681,828.0000,1.0000,0.0000,9.0000,1.0000,1.0000,2.0000
219.0000,1.5155,920.0000,0.0000,1.0000,9.0000,1.0000,1.0000,2.0000
170.0000,1.6605,702.0000,0.0000,2.0000,9.0000,1.0000,1.0000,2.0000
184.0000,2.4007,810.0000,1.0000,1.0000,9.0000,1.0000,1.0000,2.0000
194.0000,1.3363,598.0000,0.0000,0.0000,9.0000,1.0000,1.0000,2.0000
158.0000,0.5958,702.0000,0.0000,2.0000,9.0000,1.0000,1.0000,2.0000
212.0000,1.7456,632.0000,0.0000,1.0000,9.0000,1.0000,1.0000,2.0000
160.0000,1.1111,464.0000,0.0000,1.0000,9.0000,1.0000,1.0000,2.0000
233.0000,0.3622,801.0000,1.0000,1.0000,9.0000,1.0000,1.0000,2.0000
186.0000,0.3518,1128.0000,1.0000,2.0000,9.0000,1.0000,1.0000,2.0000
154.0000,0.2829,1300.0000,0.0000,2.0000,9.0000,1.0000,1.0000,2.0000
172.0000,0.5560,595.0000,1.0000,1.0000,9.0000,1.0000,1.0000,2.0000
236.0000,2.8525,762.0000,1.0000,0.0000,9.0000,1.0000,1.0000,2.0000
257.0000,0.8090,1452.0000,0.0000,0.0000,9.0000,1.0000,1.0000,2.0000
266.0000,-0.9360,974.0000,1.0000,0.0000,9.0000,1.0000,1.0000,2.0000
238.0000,1.8042,564.0000,0.0000,1.0000,9.0000,1.0000,1.0000,2.0000
230.0000,2.7768,690.0000,0.0000,1.0000,9.0000,1.0000,1.0000,2.0000
242.0000,1.0390,581.0000,0.0000,2.0000,9.0000,1.0000,1.0000,2.0000
195.0000,2.1476,1676.0000,0.0000,0.0000,9.0000,1.0000,1.0000,2.0000
200.0000,2.8908,629.0000,0.0000,1.0000,9.0000,1.0000,1.0000,2.0000
207.0000,1.2340,814.0000,0.0000,2.0000,9.0000,1.0000,1.0000,2.0000
191.0000,0.6729,1413.0000,1.0000,2.0000,9.0000,1.0000,1.0000,2.0000
238.0000,0.7492,557.0000,0.0000,2.0000,9.0000,1.0000,1.0000,2.0000
249.0000,-0.3848,742.0000,1.0000,1.0000,9.0000,1.0000,1.0000,2.0000
162.0000,1.4894,692.0000,0.0000,2.0000,9.0000,1.0000,1.0000,2.0000
195.0000,1.1704,784.0000,1.0000,1.0000,9.0000,1.0000,1.0000,2.0000
156.0000,1.1233,706.0000,0.0000,2.0000,9.0000,1.0000,1.0000,2.0000
158.0000,2.9253,951.0000,1.0000,0.0000,9.0000,1.0000,1.0000,2.0000
203.0000,2.7868,773.0000,1.0000,1.0000,9.0000,1.0000,1.0000,2.0000
177.0000,1.4717,811.0000,0.0000,2.0000,9.0000,1.0000,1.0000,2.0000
270.0000,3.1179,757.0000,1.0000,0.0000,9.0000,1.0000,1.0000,2.0000
209.0000,2.7598,708.0000,1.0000,1.0000,9.0000,1.0000,1.0000,2.0000
165.0000,1.0896,597.0000,0.0000,1.0000,9.0000,1.0000,1.0000,2.0000
173.0000,1.6059,755.0000,1.0000,2.0000,9.0000,1.0000,1.0000,2.0000
159.0000,0.1002,503.0000,1.0000,1.0000,9.0000,1.0000,1.0000,2.0000
215.0000,2.3992,712.0000,1.0000,1.0000,9.0000,1.0000,1.0000,2.0000
167.0000,1.6141,636.0000,1.0000,1.0000,9.0000,1.0000,1.0000,2.0000
151.0000,1.4719,565.0000,1.0000,2.0000,9.0000,1.0000,1.0000,2.0000
165.0000,2.6753,649.0000,0.0000,2.0000,9.0000,1.0000,1.0000,2.0000
158.0000,1.2251,630.0000,1.0000,2.0000,9.0000,1.0000,1.0000,2.0000
218.0000,2.6531,793.0000,1.0000,0.0000,9.0000,1.0000,1.0000,2.0000
204.0000,1.2509,420.0000,0.0000,1.0000,9.0000,1.0000,1.0000,2.0000
189.0000,0.3115,711.0000,1.0000,1.0000,9.0000,1.0000,1.0000,2.0000
262.0000,0.5062,1036.0000,1.0000,2.0000,9.0000,1.0000,1.0000,2.0000
211.0000,-0.8426,1356.0000,0.0000,0.0000,9.0000,1.0000,1.0000,2.0000
251.0000,1.8054,832.0000,0.0000,1.0000,9.0000,1.0000,1.0000,2.0000
159.0000,1.6360,759.0000,1.0000,2.0000,9.0000,1.0000,1.0000,2.0000
160.0000,0.2049,779.0000,1.0000,2.0000,9.0000,1.0000,1.0000,2.0000
159.0000,2.2272,661.0000,1.0000,1.0000,9.0000,1.0000,1.0000,2.0000
152.0000,1.4101,959.0000,0.0000,2.0000,9.0000,1.0000,1.0000,2.0000
189.0000,0.4167,488.0000,1.0000,2.0000,9.0000,1.0000,1.0000,2.0000
198.0000,2.5257,609.0000,1.0000,0.0000,9.0000,1.0000,1.0000,2.0000
248.0000,1.1388,714.0000,1.0000,1.0000,9.0000,1.0000,1.0000,2.0000
206.0000,2.2780,1076.0000,1.0000,1.0000,9.0000,1.0000,1.0000,2.0000
250.0000,0.7300,774.0000,1.0000,1.0000,9.0000,1.0000,1.0000,2.0000
230.0000,3.4098,603.0000,1.0000,1.0000,9.0000,1.0000,1.0000,2.0000
257.0000,1.4098,989.0000,1.0000,2.0000,9.0000,1.0000,1.0000,2.0000
206.0000,3.2220,1051.0000,1.0000,1.0000,9.0000,1.0000,1.0000,2.0000
263.0000,-0.3076,548.0000,0.0000,0.0000,9.0000,1.0000,1.0000,2.0000
170.0000,-1.5099,576.0000,1.0000,0.0000,9.0000,1.0000,1.0000,2.0000
235.0000,0.6955,728.0000,1.0000,1.0000,9.0000,1.0000,1.0000,2.0000
210.0000,3.9887,597.0000,1.0000,1.0000,9.0000,1.0000,1.0000,2.0000
216.0000,2.0798,487.0000,0.0000,1.0000,9.0000,1.0000,1.0000,2.0000
214.0000,0.8730,592.0000,1.0000,1.0000,9.0000,1.0000,1.0000,2.0000
197.0000,0.3786,533.0000,1.0000,1.0000,9.0000,1.0000,1.0000,2.0000
193.0000,1.5974,702.0000,1.0000,1.0000,9.0000,1.0000,1.0000,2.0000
177.0000,1.7555,832.0000,0.0000,2.0000,9.0000,1.0000,1.0000,2.0000
229.0000,0.2668,495.0000,0.0000,0.0000,9.0000,1.0000,1.0000,2.0000
197.0000,3.3761,895.0000,0.0000,0.0000,9.0000,1.0000,1.0000,2.0000
209.0000,1.0988,723.0000,1.0000,2.0000,9.0000,1.0000,1.0000,2.0000
215.0000,2.4973,700.0000,1.0000,1.0000,9.0000,1.0000,1.0000,2.0000
238.0000,1.1357,630.0000,1.0000,0.0000,9.0000,1.0000,1.0000,2.0000
219.0000,2.2990,675.0000,1.0000,0.0000,9.0000,1.0000,1.0000,2.0000
228.0000,0.2959,599.0000,1.0000,1.0000,9.0000,1.0000,1.0000,2.0000
170.0000,1.2245,629.0000,0.0000,1.0000,9.0000,1.0000,1.0000,2.0000
168.0000,0.7265,516.0000,0.0000,2.0000,9.0000,1.0000,1.0000,2.0000
190.0000,1.5397,759.0000,1.0000,1.0000,9.0000,1.0000,1.0000,2.0000
162.0000,0.6010,642.0000,1.0000,1.0000,9.0000,1.0000,1.0000,2.0000
165.0000,0.5707,545.0000,0.0000,2.0000,9.0000,1.0000,1.0000,2.0000
157.0000,1.3801,583.0000,1.0000,2.0000,9.0000,1.0000,1.0000,2.0000
161.0000,1.0048,554.0000,0.0000,2.0000,9.0000,1.0000,1.0000,2.0000
161.0000,1.0791,846.0000,1.0000,2.0000,9.0000,1.0000,1.0000,2.0000
242.0000,1.5465,1122.0000,1.0000,0.0000,9.0000,1.0000,1.0000,2.0000
193.0000,0.5113,647.0000,0.0000,1.0000,9.0000,1.0000,1.0000,2.0000
208.0000,2.2625,1247.0000,1.0000,0.0000,9.0000,1.0000,1.0000,2.0000
168.0000,1.7086,510.0000,1.0000,1.0000,9.0000,1.0000,1.0000,2.0000
165.0000,0.9267,701.0000,1.0000,1.0000,9.0000,1.0000,1.0000,2.0000
166.0000,1.2095,734.0000,1.0000,1.0000,9.0000,1.0000,1.0000,2.0000
222.0000,2.5109,621.0000,0.0000,1.0000,9.0000,1.0000,1.0000,2.0000
213.0000,2.7063,459.0000,0.0000,1.0000,9.0000,1.0000,1.0000,2.0000
155.0000,1.3016,727.0000,1.0000,2.0000,9.0000,1.0000,1.0000,2.0000
257.0000,2.2051,1484.0000,1.0000,0.0000,9.0000,1.0000,1.0000,2.0000
160.0000,1.2414,1049.0000,0.0000,2.0000,9.0000,1.0000,1.0000,2.0000
163.0000,1.3174,678.0000,0.0000,2.0000,9.0000,1.0000,1.0000,2.0000
156.0000,3.4023,500.0000,1.0000,0.0000,9.0000,1.0000,1.0000,2.0000
158.0000,1.1881,1385.0000,1.0000,2.0000,9.0000,1.0000,1.0000,2.0000
229.0000,3.3594,610.0000,1.0000,1.0000,9.0000,1.0000,1.0000,2.0000
222.0000,1.3058,1289.0000,1.0000,0.0000,9.0000,1.0000,1.0000,2.0000
259.0000,0.7842,571.0000,1.0000,0.0000,9.0000,1.0000,1.0000,2.0000
160.0000,0.0333,538.0000,1.0000,2.0000,9.0000,1.0000,1.0000,2.0000
152.0000,1.4920,556.0000,1.0000,2.0000,9.0000,1.0000,1.0000,2.0000
155.0000,1.1123,1060.0000,0.0000,0.0000,9.0000,1.0000,1.0000,2.0000
154.0000,1.1580,678.0000,0.0000,2.0000,9.0000,1.0000,1.0000,2.0000
211.0000,2.2726,712.0000,1.0000,1.0000,9.0000,1.0000,1.0000,2.0000
157.0000,1.4025,551.0000,0.0000,2.0000,9.0000,1.0000,1.0000,2.0000
211.0000,1.2912,730.0000,0.0000,0.0000,9.0000,1.0000,1.0000,2.0000
152.0000,-0.6594,640.0000,0.0000,0.0000,9.0000,1.0000,1.0000,2.0000
214.0000,3.5674,990.0000,1.0000,0.0000,9.0000,1.0000,1.0000,2.0000
175.0000,1.9249,803.0000,1.0000,1.0000,9.0000,1.0000,1.0000,2.0000
171.0000,1.8523,686.0000,1.0000,1.0000,9.0000,1.0000,1.0000,2.0000
172.0000,0.7852,583.0000,1.0000,0.0000,9.0000,1.0000,1.0000,2.0000
167.0000,3.2965,796.0000,1.0000,1.0000,9.0000,1.0000,1.0000,2.0000
169.0000,2.5889,1318.0000,1.0000,1.0000,9.0000,1.0000,1.0000,2.0000
176.0000,0.2621,689.0000,1.0000,1.0000,9.0000,1.0000,1.0000,2.0000
206.0000,0.8779,787.0000,1.0000,0.0000,9.0000,1.0000,1.0000,2.0000
154.0000,2.4264,435.0000,1.0000,1.0000,9.0000,1.0000,1.0000,2.0000
251.0000,3.2911,672.0000,1.0000,0.0000,9.0000,1.0000,1.0000,2.0000
172.0000,1.5324,557.0000,1.0000,2.0000,9.0000,1.0000,1.0000,2.0000
212.0000,1.9406,525.0000,1.0000,1.0000,9.0000,1.0000,1.0000,2.0000
169.0000,2.9557,523.0000,1.0000,1.0000,9.0000,1.0000,1.0000,2.0000
178.0000,2.1183,888.0000,0.0000,1.0000,9.0000,1.0000,1.0000,2.0000
153.0000,1.6153,617.0000,1.0000,2.0000,9.0000,1.0000,1.0000,2.0000
218.0000,3.1474,697.0000,0.0000,1.0000,9.0000,1.0000,1.0000,2.0000
168.0000,1.5138,684.0000,1.0000,1.0000,9.0000,1.0000,1.0000,2.0000
162.0000,0.8088,497.0000,1.0000,2.0000,9.0000,1.0000,1.0000,2.0000
193.0000,1.6292,585.0000,1.0000,0.0000,9.0000,1.0000,1.0000,2.0000
241.0000,0.9992,846.0000,0.0000,0.0000,9.0000,1.0000,1.0000,2.0000
153.0000,1.0446,713.0000,0.0000,2.0000,9.0000,1.0000,1.0000,2.0000
179.0000,1.1954,647.0000,0.0000,2.0000,9.0000,1.0000,1.0000,2.0000
163.0000,0.6363,622.0000,1.0000,0.0000,9.0000,1.0000,1.0000,2.0000
168.0000,5.2056,537.0000,0.0000,1.0000,9.0000,1.0000,1.0000,2.0000
254.0000,1.1252,775.0000,1.0000,2.0000,9.0000,1.0000,1.0000,2.0000
256.0000,2.0438,706.0000,1.0000,0.0000,9.0000,1.0000,1.0000,2.0000
152.0000,0.1527,520.0000,1.0000,2.0000,9.0000,1.0000,1.0000,2.0000
159.0000,0.2016,825.0000,0.0000,2.0000,9.0000,1.0000,1.0000,2.0000
163.0000,1.1008,644.0000,1.0000,2.0000,9.0000,1.0000,1.0000,2.0000
159.0000,1.5849,568.0000,1.0000,2.0000,9.0000,1.0000,1.0000,2.0000
211.0000,2.3748,801.0000,1.0000,1.0000,9.0000,1.0000,1.0000,2.0000
253.0000,0.5441,577.0000,0.0000,0.0000,9.0000,1.0000,1.0000,2.0000
220.0000,1.7856,979.0000,1.0000,1.0000,9.0000,1.0000,1.0000,2.0000
156.0000,0.6721,591.0000,0.0000,1.0000,9.0000,1.0000,1.0000,2.0000
160.0000,0.7146,540.0000,1.0000,2.0000,9.0000,1.0000,1.0000,2.0000
154.0000,1.2018,671.0000,1.0000,2.0000,9.0000,1.0000,1.0000,2.0000
242.0000,1.5028,785.0000,1.0000,0.0000,9.0000,1.0000,1.0000,2.0000
249.0000,3.0482,910.0000,1.0000,0.0000,9.0000,1.0000,1.0000,2.0000
208.0000,2.9239,781.0000,1.0000,1.0000,9.0000,1.0000,1.0000,2.0000
216.0000,2.0901,819.0000,1.0000,1.0000,9.0000,1.0000,1.0000,2.0000
155.0000,1.7426,825.0000,1.0000,1.0000,9.0000,1.0000,1.0000,2.0000
235.0000,1.3842,710.0000,1.0000,1.0000,9.0000,1.0000,1.0000,2.0000
164.0000,1.3182,703.0000,1.0000,2.0000,9.0000,1.0000,1.0000,2.0000
232.0000,4.1080,889.0000,0.0000,0.0000,9.0000,1.0000,1.0000,2.0000
162.0000,1.3878,535.0000,0.0000,2.0000,9.0000,1.0000,1.0000,2.0000
171.0000,1.9924,591.0000,1.0000,1.0000,9.0000,1.0000,1.0000,2.0000
234.0000,1.6570,514.0000,1.0000,0.0000,9.0000,1.0000,1.0000,2.0000
178.0000,2.4381,664.0000,1.0000,1.0000,9.0000,1.0000,1.0000,2.0000
197.0000,0.4477,639.0000,1.0000,1.0000,9.0000,1.0000,1.0000,2.0000
158.0000,1.5828,484.0000,1.0000,2.0000,9.0000,1.0000,1.0000,2.0000
172.0000,2.3047,1156.0000,1.0000,2.0000,9.0000,1.0000,1.0000,2.0000
264.0000,1.2907,645.0000,0.0000,0.0000,9.0000,1.0000,1.0000,2.0000
196.0000,1.0097,702.0000,1.0000,2.0000,9.0000,1.0000,1.0000,2.0000
174.0000,2.5604,756.0000,0.0000,1.0000,9.0000,1.0000,1.0000,2.0000
186.0000,3.5258,591.0000,0.0000,1.0000,9.0000,1.0000,1.0000,2.0000
220.0000,2.0552,884.0000,0.0000,1.0000,9.0000,1.0000,1.0000,2.0000
194.0000,0.1633,579.0000,1.0000,1.0000,9.0000,1.0000,1.0000,2.0000
255.0000,4.4252,591.0000,0.0000,0.0000,9.0000,1.0000,1.0000,2.0000
238.0000,1.7222,942.0000,1.0000,1.0000,9.0000,1.0000,1.0000,2.0000
203.0000,2.0585,668.0000,1.0000,1.0000,9.0000,1.0000,1.0000,2.0000
214.0000,4.0300,619.0000,0.0000,0.0000,9.0000,1.0000,1.0000,2.0000
200.0000,2.0824,856.0000,1.0000,1.0000,9.0000,1.0000,1.0000,2.0000
156.0000,0.7066,928.0000,1.0000,2.0000,9.0000,1.0000,1.0000,2.0000
245.0000,1.8128,864.0000,1.0000,0.0000,9.0000,1.0000,1.0000,2.0000
249.0000,3.4621,570.0000,1.0000,0.0000,9.0000,1.0000,1.0000,2.0000
237.0000,2.5318,713.0000,1.0000,0.0000,9.0000,1.0000,1.0000,2.0000
154.0000,1.2516,571.0000,1.0000,2.0000,9.0000,1.0000,1.0000,2.0000
249.0000,3.4741,792.0000,1.0000,0.0000,9.0000,1.0000,1.0000,2.0000
208.0000,2.1510,524.0000,1.0000,1.0000,9.0000,1.0000,1.0000,2.0000
211.0000,2.1022,834.0000,1.0000,1.0000,9.0000,1.0000,1.0000,2.0000
178.0000,2.9752,771.0000,1.0000,1.0000,9.0000,1.0000,1.0000,2.0000
163.0000,2.8913,522.0000,1.0000,1.0000,9.0000,1.0000,1.0000,2.0000
154.0000,1.9955,439.0000,0.0000,1.0000,9.0000,1.0000,1.0000,2.0000
210.0000,1.3923,717.0000,1.0000,1.0000,9.0000,1.0000,1.0000,2.0000
168.0000,1.5238,703.0000,1.0000,2.0000,9.0000,1.0000,1.0000,2.0000
231.0000,2.0543,744.0000,1.0000,1.0000,9.0000,1.0000,1.0000,2.0000
155.0000,1.7412,588.0000,1.0000,2.0000,9.0000,1.0000,1.0000,2.0000
155.0000,1.3566,759.0000,0.0000,2.0000,9.0000,1.0000,1.0000,2.0000
152.0000,1.8674,595.0000,1.0000,2.0000,9.0000,1.0000,1.0000,2.0000
215.0000,2.5682,704.0000,0.0000,1.0000,9.0000,1.0000,1.0000,2.0000
194.0000,2.5406,575.0000,1.0000,1.0000,9.0000,1.0000,1.0000,2.0000
179.0000,1.5805,546.0000,0.0000,1.0000,9.0000,1.0000,1.0000,2.0000
163.0000,1.5614,633.0000,0.0000,2.0000,9.0000,1.0000,1.0000,2.0000
160.0000,2.1017,705.0000,1.0000,2.0000,9.0000,1.0000,1.0000,2.0000
208.0000,0.4370,745.0000,1.0000,2.0000,9.0000,1.0000,1.0000,2.0000
237.0000,5.6263,877.0000,1.0000,0.0000,9.0000,1.0000,1.0000,2.0000
159.0000,1.8214,521.0000,0.0000,2.0000,9.0000,1.0000,1.0000,2.0000
207.0000,1.3557,582.0000,0.0000,0.0000,9.0000,1.0000,1.0000,2.0000
184.0000,2.2036,710.0000,1.0000,1.0000,9.0000,1.0000,1.0000,2.0000
158.0000,1.5156,499.0000,0.0000,2.0000,9.0000,1.0000,1.0000,2.0000
226.0000,1.7129,702.0000,0.0000,1.0000,9.0000,1.0000,1.0000,2.0000
228.0000,1.6065,654.0000,0.0000,0.0000,9.0000,1.0000,1.0000,2.0000
211.0000,1.2113,819.0000,1.0000,2.0000,9.0000,1.0000,1.0000,2.0000
174.0000,2.0376,478.0000,0.0000,1.0000,9.0000,1.0000,1.0000,2.0000
162.0000,0.1611,408.0000,1.0000,1.0000,9.0000,1.0000,1.0000,2.0000
218.0000,2.3786,764.0000,0.0000,0.0000,9.0000,1.0000,1.0000,2.0000
162.0000,1.3427,707.0000,1.0000,2.0000,9.0000,1.0000,1.0000,2.0000
164.0000,2.5676,812.0000,1.0000,1.0000,9.0000,1.0000,1.0000,2.0000
265.0000,0.9514,895.0000,1.0000,0.0000,9.0000,1.0000,1.0000,2.0000
165.0000,0.8534,808.0000,1.0000,2.0000,10.0000,1.0000,2.0000,2.0000
253.0000,1.7416,1129.0000,1.0000,0.0000,10.0000,1.0000,2.0000,2.0000
226.0000,0.2306,1158.0000,0.0000,1.0000,10.0000,1.0000,2.0000,2.0000
199.0000,1.4544,832.0000,1.0000,1.0000,10.0000,1.0000,2.0000,2.0000
171.0000,0.4999,697.0000,0.0000,1.0000,10.0000,1.0000,2.0000,2.0000
152.0000,1.3871,791.0000,0.0000,2.0000,10.0000,1.0000,2.0000,2.0000
227.0000,1.5510,760.0000,1.0000,0.0000,10.0000,1.0000,2.0000,2.0000
207.0000,-0.0419,966.0000,1.0000,1.0000,10.0000,1.0000,2.0000,2.0000
233.0000,-0.2003,708.0000,1.0000,1.0000,10.0000,1.0000,2.0000,2.0000
211.0000,3.4075,948.0000,1.0000,0.0000,10.0000,1.0000,2.0000,2.0000
228.0000,0.7830,699.0000,0.0000,0.0000,10.0000,1.0000,2.0000,2.0000
254.0000,0.1660,802.0000,0.0000,0.0000,10.0000,1.0000,2.0000,2.0000
160.0000,0.1941,530.0000,0.0000,2.0000,10.0000,1.0000,2.0000,2.0000
205.0000,0.5863,709.0000,1.0000,1.0000,10.0000,1.0000,2.0000,2.0000
163.0000,1.4015,492.0000,1.0000,2.0000,10.0000,1.0000,2.0000,2.0000
264.0000,0.3737,1025.0000,1.0000,0.0000,10.0000,1.0000,2.0000,2.0000
161.0000,0.6438,417.0000,1.0000,2.0000,10.0000,1.0000,2.0000,2.0000
169.0000,1.2497,735.0000,0.0000,1.0000,10.0000,1.0000,2.0000,2.0000
263.0000,2.2449,822.0000,1.0000,0.0000,10.0000,1.0000,2.0000,2.0000
187.0000,0.6075,873.0000,0.0000,0.0000,10.0000,1.0000,2.0000,2.0000
165.0000,0.6450,660.0000,1.0000,1.0000,10.0000,1.0000,2.0000,2.0000
169.0000,1.0914,936.0000,0.0000,2.0000,10.0000,1.0000,2.0000,2.0000
155.0000,0.9886,805.0000,1.0000,2.0000,10.0000,1.0000,2.0000,2.0000
220.0000,2.4625,610.0000,0.0000,0.0000,10.0000,1.0000,2.0000,2.0000
160.0000,0.7282,960.0000,0.0000,2.0000,10.0000,1.0000,2.0000,2.0000
273.0000,0.9734,828.0000,1.0000,0.0000,10.0000,1.0000,2.0000,2.0000
237.0000,2.0050,788.0000,0.0000,0.0000,10.0000,1.0000,2.0000,2.0000
214.0000,1.1283,1087.0000,1.0000,0.0000,10.0000,1.0000,2.0000,2.0000
158.0000,1.3490,970.0000,0.0000,2.0000,10.0000,1.0000,2.0000,2.0000
210.0000,1.3027,828.0000,1.0000,1.0000,10.0000,1.0000,2.0000,2.0000
170.0000,0.8936,880.0000,1.0000,1.0000,10.0000,1.0000,2.0000,2.0000
187.0000,1.0072,1068.0000,0.0000,1.0000,10.0000,1.0000,2.0000,2.0000
166.0000,0.5606,869.0000,1.0000,0.0000,10.0000,1.0000,2.0000,2.0000
161.0000,0.6924,817.0000,1.0000,2.0000,10.0000,1.0000,2.0000,2.0000
229.0000,0.9448,726.0000,1.0000,1.0000,10.0000,1.0000,2.0000,2.0000
263.0000,2.5417,1051.0000,0.0000,0.0000,10.0000,1.0000,2.0000,2.0000
161.0000,1.1379,577.0000,1.0000,1.0000,10.0000,1.0000,2.0000,2.0000
197.0000,2.2620,764.0000,0.0000,0.0000,10.0000,1.0000,2.0000,2.0000
216.0000,2.4799,471.0000,1.0000,0.0000,10.0000,1.0000,2.0000,2.0000
167.0000,1.1616,701.0000,1.0000,1.0000,10.0000,1.0000,2.0000,2.0000
268.0000,2.7064,661.0000,1.0000,0.0000,10.0000,1.0000,2.0000,2.0000
160.0000,1.3113,451.0000,1.0000,1.0000,10.0000,1.0000,2.0000,2.0000
155.0000,1.2082,560.0000,1.0000,2.0000,10.0000,1.0000,2.0000,2.0000
177.0000,1.3152,674.0000,1.0000,1.0000,10.0000,1.0000,2.0000,2.0000
161.0000,0.7671,692.0000,1.0000,1.0000,10.0000,1.0000,2.0000,2.0000
154.0000,0.9268,721.0000,1.0000,2.0000,10.0000,1.0000,2.0000,2.0000
157.0000,1.0310,677.0000,1.0000,2.0000,10.0000,1.0000,2.0000,2.0000
178.0000,0.9519,1229.0000,1.0000,1.0000,10.0000,1.0000,2.0000,2.0000
238.0000,0.3903,808.0000,0.0000,0.0000,10.0000,1.0000,2.0000,2.0000
201.0000,2.6191,601.0000,0.0000,0.0000,10.0000,1.0000,2.0000,2.0000
175.0000,1.4993,776.0000,1.0000,2.0000,10.0000,1.0000,2.0000,2.0000
160.0000,1.6213,1110.0000,0.0000,1.0000,10.0000,1.0000,2.0000,2.0000
251.0000,1.1420,731.0000,1.0000,0.0000,10.0000,1.0000,2.0000,2.0000
153.0000,1.4856,1054.0000,1.0000,2.0000,10.0000,1.0000,2.0000,2.0000
180.0000,1.5206,1011.0000,1.0000,1.0000,10.0000,1.0000,2.0000,2.0000
161.0000,1.3332,1033.0000,1.0000,1.0000,10.0000,1.0000,2.0000,2.0000
165.0000,0.8987,1096.0000,0.0000,1.0000,10.0000,1.0000,2.0000,2.0000
218.0000,0.7544,702.0000,1.0000,1.0000,10.0000,1.0000,2.0000,2.0000
260.0000,1.0133,847.0000,0.0000,0.0000,10.0000,1.0000,2.0000,2.0000
270.0000,2.1079,678.0000,1.0000,0.0000,10.0000,1.0000,2.0000,2.0000
177.0000,1.3348,488.0000,1.0000,1.0000,10.0000,1.0000,2.0000,2.0000
241.0000,0.6504,708.0000,0.0000,0.0000,10.0000,1.0000,2.0000,2.0000
228.0000,1.0226,692.0000,1.0000,1.0000,10.0000,1.0000,2.0000,2.0000
151.0000,0.7761,727.0000,1.0000,2.0000,10.0000,1.0000,2.0000,2.0000
199.0000,1.2076,1008.0000,1.0000,1.0000,10.0000,1.0000,2.0000,2.0000
190.0000,1.7602,688.0000,0.0000,0.0000,10.0000,1.0000,2.0000,2.0000
172.0000,1.4046,639.0000,0.0000,1.0000,10.0000,1.0000,2.0000,2.0000
259.0000,1.6861,583.0000,0.0000,0.0000,10.0000,1.0000,2.0000,2.0000
163.0000,1.9299,1100.0000,0.0000,1.0000,10.0000,1.0000,2.0000,2.0000
152.0000,0.9562,480.0000,1.0000,2.0000,10.0000,1.0000,2.0000,2.0000
181.0000,0.2868,603.0000,0.0000,1.0000,10.0000,1.0000,2.0000,2.0000
209.0000,1.2414,622.0000,0.0000,0.0000,10.0000,1.0000,2.0000,2.0000
152.0000,0.7936,1009.0000,1.0000,2.0000,10.0000,1.0000,2.0000,2.0000
263.0000,1.1761,685.0000,1.0000,0.0000,10.0000,1.0000,2.0000,2.0000
164.0000,1.4054,1075.0000,1.0000,2.0000,10.0000,1.0000,2.0000,2.0000
163.0000,1.0004,1475.0000,0.0000,1.0000,10.0000,1.0000,2.0000,2.0000
253.0000,1.9451,525.0000,0.0000,0.0000,10.0000,1.0000,2.0000,2.0000
165.0000,0.8012,741.0000,1.0000,2.0000,10.0000,1.0000,2.0000,2.0000
160.0000,1.0244,605.0000,0.0000,2.0000,10.0000,1.0000,2.0000,2.0000
161.0000,1.2037,759.0000,0.0000,1.0000,10.0000,1.0000,2.0000,2.0000
254.0000,1.5976,735.0000,1.0000,0.0000,10.0000,1.0000,2.0000,2.0000
160.0000,1.1461,693.0000,1.0000,2.0000,10.0000,1.0000,2.0000,2.0000
243.0000,1.6478,1129.0000,1.0000,0.0000,10.0000,1.0000,2.0000,2.0000
190.0000,0.3893,503.0000,1.0000,0.0000,10.0000,1.0000,2.0000,2.0000
161.0000,1.9221,733.0000,1.0000,2.0000,10.0000,1.0000,2.0000,2.0000
231.0000,0.5255,792.0000,0.0000,1.0000,10.0000,1.0000,2.0000,2.0000
206.0000,1.1574,637.0000,1.0000,1.0000,10.0000,1.0000,2.0000,2.0000
217.0000,0.9974,921.0000,0.0000,0.0000,10.0000,1.0000,2.0000,2.0000
164.0000,1.4161,973.0000,0.0000,2.0000,10.0000,1.0000,2.0000,2.0000
244.0000,1.9962,628.0000,1.0000,0.0000,10.0000,1.0000,2.0000,2.0000
179.0000,2.1071,718.0000,1.0000,1.0000,10.0000,1.0000,2.0000,2.0000
257.0000,1.6470,602.0000,1.0000,0.0000,10.0000,1.0000,2.0000,2.0000
252.0000,2.2491,545.0000,1.0000,0.0000,10.0000,1.0000,2.0000,2.0000
227.0000,1.9964,609.0000,0.0000,0.0000,10.0000,1.0000,2.0000,2.0000
242.0000,1.4493,507.0000,1.0000,0.0000,10.0000,1.0000,2.0000,2.0000
157.0000,0.8397,541.0000,1.0000,2.0000,10.0000,1.0000,2.0000,2.0000
249.0000,0.5895,650.0000,0.0000,0.0000,10.0000,1.0000,2.0000,2.0000
211.0000,0.4936,536.0000,1.0000,2.0000,10.0000,1.0000,2.0000,2.0000
160.0000,0.7808,408.0000,1.0000,1.0000,10.0000,1.0000,2.0000,2.0000
232.0000,1.3706,545.0000,1.0000,0.0000,10.0000,1.0000,2.0000,2.0000
179.0000,0.6978,593.0000,1.0000,2.0000,10.0000,1.0000,2.0000,2.0000
174.0000,0.8066,643.0000,1.0000,1.0000,10.0000,1.0000,2.0000,2.0000
171.0000,0.7917,636.0000,0.0000,2.0000,10.0000,1.0000,2.0000,2.0000
156.0000,0.8548,528.0000,1.0000,1.0000,10.0000,1.0000,2.0000,2.0000
173.0000,1.9488,527.0000,0.0000,1.0000,10.0000,1.0000,2.0000,2.0000
266.0000,1.5847,687.0000,0.0000,0.0000,10.0000,1.0000,2.0000,2.0000
256.0000,-0.2414,702.0000,1.0000,1.0000,10.0000,1.0000,2.0000,2.0000
162.0000,0.3454,877.0000,0.0000,1.0000,10.0000,1.0000,2.0000,2.0000
161.0000,0.7452,510.0000,0.0000,1.0000,10.0000,1.0000,2.0000,2.0000
162.0000,1.5442,634.0000,1.0000,2.0000,10.0000,1.0000,2.0000,2.0000
156.0000,0.5120,538.0000,1.0000,2.0000,10.0000,1.0000,2.0000,2.0000
156.0000,1.6085,548.0000,1.0000,1.0000,10.0000,1.0000,2.0000,2.0000
155.0000,0.8633,465.0000,1.0000,2.0000,10.0000,1.0000,2.0000,2.0000
163.0000,1.5240,493.0000,1.0000,1.0000,10.0000,1.0000,2.0000,2.0000
157.0000,1.1423,468.0000,0.0000,2.0000,10.0000,1.0000,2.0000,2.0000
184.0000,0.7289,480.0000,1.0000,2.0000,10.0000,1.0000,2.0000,2.0000
215.0000,1.7320,711.0000,1.0000,1.0000,10.0000,1.0000,2.0000,2.0000
159.0000,1.5296,606.0000,1.0000,2.0000,10.0000,1.0000,2.0000,2.0000
257.0000,1.9032,906.0000,1.0000,0.0000,10.0000,1.0000,2.0000,2.0000
185.0000,1.1227,644.0000,1.0000,1.0000,10.0000,1.0000,2.0000,2.0000
163.0000,1.6363,718.0000,1.0000,1.0000,10.0000,1.0000,2.0000,2.0000
213.0000,2.1654,706.0000,1.0000,0.0000,10.0000,1.0000,2.0000,2.0000
198.0000,2.9214,1081.0000,0.0000,0.0000,10.0000,1.0000,2.0000,2.0000
206.0000,1.2847,1170.0000,1.0000,1.0000,10.0000,1.0000,2.0000,2.0000
239.0000,0.9683,514.0000,0.0000,0.0000,10.0000,1.0000,2.0000,2.0000
272.0000,1.3831,608.0000,0.0000,0.0000,10.0000,1.0000,2.0000,2.0000
175.0000,0.7578,626.0000,1.0000,2.0000,10.0000,1.0000,2.0000,2.0000
164.0000,1.0382,785.0000,1.0000,2.0000,10.0000,1.0000,2.0000,2.0000
176.0000,0.7126,731.0000,1.0000,1.0000,10.0000,1.0000,2.0000,2.0000
262.0000,1.2743,739.0000,1.0000,0.0000,10.0000,1.0000,2.0000,2.0000
227.0000,0.5803,581.0000,0.0000,1.0000,10.0000,1.0000,2.0000,2.0000
240.0000,0.7267,631.0000,1.0000,0.0000,10.0000,1.0000,2.0000,2.0000
203.0000,2.7102,983.0000,1.0000,0.0000,10.0000,1.0000,2.0000,2.0000
158.0000,1.2016,588.0000,1.0000,2.0000,10.0000,1.0000,2.0000,2.0000
212.0000,1.5460,538.0000,0.0000,0.0000,10.0000,1.0000,2.0000,2.0000
244.0000,0.3736,710.0000,1.0000,0.0000,10.0000,1.0000,2.0000,2.0000
183.0000,1.1030,865.0000,1.0000,1.0000,10.0000,1.0000,2.0000,2.0000
244.0000,1.5431,691.0000,0.0000,0.0000,10.0000,1.0000,2.0000,2.0000
169.0000,1.0552,582.0000,1.0000,1.0000,10.0000,1.0000,2.0000,2.0000
181.0000,0.9213,684.0000,1.0000,1.0000,10.0000,1.0000,2.0000,2.0000
156.0000,1.2875,707.0000,1.0000,2.0000,10.0000,1.0000,2.0000,2.0000
162.0000,3.1817,506.0000,1.0000,0.0000,10.0000,1.0000,2.0000,2.0000
262.0000,2.1679,474.0000,0.0000,0.0000,10.0000,1.0000,2.0000,2.0000
161.0000,0.8923,508.0000,1.0000,2.0000,10.0000,1.0000,2.0000,2.0000
151.0000,0.9455,1010.0000,1.0000,1.0000,10.0000,1.0000,2.0000,2.0000
151.0000,0.7933,667.0000,1.0000,2.0000,10.0000,1.0000,2.0000,2.0000
181.0000,2.0865,627.0000,1.0000,1.0000,10.0000,1.0000,2.0000,2.0000
158.0000,0.8730,413.0000,1.0000,2.0000,10.0000,1.0000,2.0000,2.0000
159.0000,1.5490,626.0000,1.0000,2.0000,10.0000,1.0000,2.0000,2.0000
208.0000,1.8484,940.0000,1.0000,0.0000,10.0000,1.0000,2.0000,2.0000
155.0000,0.5311,550.0000,0.0000,2.0000,10.0000,1.0000,2.0000,2.0000
235.0000,1.1788,528.0000,1.0000,0.0000,10.0000,1.0000,2.0000,2.0000
248.0000,1.5509,477.0000,1.0000,0.0000,10.0000,1.0000,2.0000,2.0000
158.0000,1.8022,641.0000,1.0000,2.0000,10.0000,1.0000,2.0000,2.0000
247.0000,1.1078,505.0000,1.0000,0.0000,10.0000,1.0000,2.0000,2.0000
185.0000,1.8585,566.0000,0.0000,1.0000,10.0000,1.0000,2.0000,2.0000
223.0000,1.0931,501.0000,1.0000,1.0000,10.0000,1.0000,2.0000,2.0000
196.0000,0.1913,644.0000,0.0000,0.0000,10.0000,1.0000,2.0000,2.0000
226.0000,1.1395,656.0000,1.0000,0.0000,10.0000,1.0000,2.0000,2.0000
193.0000,0.2240,854.0000,1.0000,1.0000,10.0000,1.0000,2.0000,2.0000
171.0000,1.6784,515.0000,0.0000,1.0000,10.0000,1.0000,2.0000,2.0000
156.0000,0.9289,694.0000,1.0000,2.0000,10.0000,1.0000,2.0000,2.0000
170.0000,1.1605,674.0000,1.0000,2.0000,10.0000,1.0000,2.0000,2.0000
271.0000,1.4845,406.0000,0.0000,0.0000,10.0000,1.0000,2.0000,2.0000
169.0000,0.9391,464.0000,0.0000,1.0000,10.0000,1.0000,2.0000,2.0000
247.0000,2.0986,503.0000,0.0000,0.0000,10.0000,1.0000,2.0000,2.0000
156.0000,1.5581,424.0000,1.0000,2.0000,10.0000,1.0000,2.0000,2.0000
163.0000,0.9283,507.0000,1.0000,2.0000,10.0000,1.0000,2.0000,2.0000
161.0000,0.9278,529.0000,1.0000,1.0000,10.0000,1.0000,2.0000,2.0000
239.0000,1.0585,542.0000,0.0000,1.0000,10.0000,1.0000,2.0000,2.0000
153.0000,1.5551,777.0000,1.0000,1.0000,10.0000,1.0000,2.0000,2.0000
164.0000,1.5043,644.0000,1.0000,2.0000,10.0000,1.0000,2.0000,2.0000
158.0000,0.5795,628.0000,0.0000,1.0000,10.0000,1.0000,2.0000,2.0000
188.0000,1.8817,589.0000,1.0000,1.0000,10.0000,1.0000,2.0000,2.0000
204.0000,1.7234,1152.0000,0.0000,0.0000,10.0000,1.0000,2.0000,2.0000
257.0000,1.5118,779.0000,0.0000,0.0000,10.0000,1.0000,2.0000,2.0000
187.0000,1.3355,1134.0000,1.0000,1.0000,10.0000,1.0000,2.0000,2.0000
184.0000,0.4796,539.0000,1.0000,1.0000,10.0000,1.0000,2.0000,2.0000
229.0000,1.8957,641.0000,1.0000,0.0000,10.0000,1.0000,2.0000,2.0000
196.0000,1.5146,707.0000,1.0000,0.0000,10.0000,1.0000,2.0000,2.0000
239.0000,1.9964,576.0000,1.0000,0.0000,10.0000,1.0000,2.0000,2.0000
265.0000,-0.3100,1111.0000,1.0000,0.0000,10.0000,1.0000,2.0000,2.0000
173.0000,0.9721,444.0000,1.0000,2.0000,10.0000,1.0000,2.0000,2.0000
159.0000,2.1662,601.0000,1.0000,1.0000,10.0000,1.0000,2.0000,2.0000
156.0000,1.2636,621.0000,1.0000,2.0000,10.0000,1.0000,2.0000,2.0000
230.0000,1.5722,419.0000,0.0000,0.0000,10.0000,1.0000,2.0000,2.0000
164.0000,0.2143,498.0000,1.0000,1.0000,10.0000,1.0000,2.0000,2.0000
185.0000,0.6147,577.0000,0.0000,1.0000,10.0000,1.0000,2.0000,2.0000
163.0000,1.6884,840.0000,1.0000,2.0000,10.0000,1.0000,2.0000,2.0000
164.0000,1.1389,486.0000,1.0000,1.0000,10.0000,1.0000,2.0000,2.0000
210.0000,1.5397,838.0000,1.0000,1.0000,10.0000,1.0000,2.0000,2.0000
244.0000,1.6391,519.0000,1.0000,0.0000,10.0000,1.0000,2.0000,2.0000
193.0000,1.3143,538.0000,1.0000,1.0000,10.0000,1.0000,2.0000,2.0000
162.0000,1.2738,850.0000,0.0000,1.0000,10.0000,1.0000,2.0000,2.0000
164.0000,0.8534,688.0000,1.0000,2.0000,10.0000,1.0000,2.0000,2.0000
161.0000,0.5892,619.0000,1.0000,2.0000,10.0000,1.0000,2.0000,2.0000
242.0000,2.3538,790.0000,1.0000,0.0000,10.0000,1.0000,2.0000,2.0000
220.0000,1.1874,779.0000,1.0000,0.0000,10.0000,1.0000,2.0000,2.0000
214.0000,1.2023,993.0000,0.0000,1.0000,10.0000,1.0000,2.0000,2.0000
161.0000,1.1636,527.0000,1.0000,2.0000,10.0000,1.0000,2.0000,2.0000
152.0000,1.0876,743.0000,1.0000,2.0000,10.0000,1.0000,2.0000,2.0000
165.0000,1.1483,868.0000,0.0000,1.0000,10.0000,1.0000,2.0000,2.0000
222.0000,1.0104,1029.0000,0.0000,0.0000,10.0000,1.0000,2.0000,2.0000
152.0000,1.6124,616.0000,1.0000,1.0000,10.0000,1.0000,2.0000,2.0000
218.0000,2.6419,896.0000,0.0000,0.0000,10.0000,1.0000,2.0000,2.0000
237.0000,1.4025,563.0000,1.0000,0.0000,10.0000,1.0000,2.0000,2.0000
237.0000,0.2788,615.0000,1.0000,0.0000,10.0000,1.0000,2.0000,2.0000
178.0000,1.1661,722.0000,1.0000,1.0000,10.0000,1.0000,2.0000,2.0000
235.0000,1.9173,574.0000,1.0000,0.0000,10.0000,1.0000,2.0000,2.0000
212.0000,2.5348,627.0000,1.0000,0.0000,10.0000,1.0000,2.0000,2.0000
170.0000,0.8510,864.0000,1.0000,2.0000,10.0000,1.0000,2.0000,2.0000
163.0000,1.7196,606.0000,0.0000,1.0000,10.0000,1.0000,2.0000,2.0000
160.0000,1.3100,549.0000,1.0000,1.0000,10.0000,1.0000,2.0000,2.0000
186.0000,1.3141,560.0000,1.0000,1.0000,10.0000,1.0000,2.0000,2.0000
210.0000,0.9197,683.0000,0.0000,0.0000,10.0000,1.0000,2.0000,2.0000
180.0000,1.6537,902.0000,1.0000,1.0000,10.0000,1.0000,2.0000,2.0000
172.0000,0.8718,618.0000,0.0000,0.0000,10.0000,1.0000,2.0000,2.0000
206.0000,0.6366,624.0000,0.0000,0.0000,10.0000,1.0000,2.0000,2.0000
197.0000,0.7428,552.0000,1.0000,0.0000,10.0000,1.0000,2.0000,2.0000
233.0000,0.6761,700.0000,0.0000,0.0000,10.0000,1.0000,2.0000,2.0000
261.0000,2.0080,573.0000,0.0000,0.0000,10.0000,1.0000,2.0000,2.0000
153.0000,1.5099,559.0000,1.0000,2.0000,10.0000,1.0000,2.0000,2.0000
214.0000,2.0547,898.0000,1.0000,0.0000,10.0000,1.0000,2.0000,2.0000
186.0000,1.0147,630.0000,1.0000,1.0000,10.0000,1.0000,2.0000,2.0000
176.0000,1.5886,663.0000,0.0000,0.0000,10.0000,1.0000,2.0000,2.0000
165.0000,0.8964,632.0000,1.0000,2.0000,10.0000,1.0000,2.0000,2.0000
153.0000,1.6992,636.0000,1.0000,2.0000,10.0000,1.0000,2.0000,2.0000
152.0000,0.8259,513.0000,1.0000,1.0000,10.0000,1.0000,2.0000,2.0000
168.0000,1.8628,504.0000,1.0000,1.0000,10.0000,1.0000,2.0000,2.0000
221.0000,1.9638,661.0000,0.0000,0.0000,10.0000,1.0000,2.0000,2.0000
189.0000,1.1698,479.0000,1.0000,2.0000,10.0000,1.0000,2.0000,2.0000
260.0000,1.7607,649.0000,1.0000,0.0000,10.0000,1.0000,2.0000,2.0000
164.0000,1.2853,540.0000,1.0000,1.0000,10.0000,1.0000,2.0000,2.0000
158.0000,1.0602,467.0000,1.0000,2.0000,10.0000,1.0000,2.0000,2.0000
187.0000,1.5137,703.0000,1.0000,0.0000,10.0000,1.0000,2.0000,2.0000
185.0000,1.9036,711.0000,1.0000,1.0000,10.0000,1.0000,2.0000,2.0000
155.0000,1.3389,485.0000,0.0000,1.0000,10.0000,1.0000,2.0000,2.0000
158.0000,2.0309,463.0000,1.0000,1.0000,10.0000,1.0000,2.0000,2.0000
155.0000,1.1430,570.0000,1.0000,2.0000,10.0000,1.0000,2.0000,2.0000
158.0000,1.1010,526.0000,1.0000,2.0000,10.0000,1.0000,2.0000,2.0000
225.0000,1.0159,1053.0000,1.0000,0.0000,10.0000,1.0000,2.0000,2.0000
168.0000,0.4036,951.0000,0.0000,1.0000,10.0000,1.0000,2.0000,2.0000
168.0000,2.3118,658.0000,1.0000,0.0000,10.0000,1.0000,2.0000,2.0000
238.0000,3.2932,893.0000,1.0000,0.0000,10.0000,1.0000,2.0000,2.0000
151.0000,0.7828,942.0000,0.0000,2.0000,10.0000,1.0000,2.0000,2.0000
215.0000,1.7104,739.0000,0.0000,0.0000,10.0000,1.0000,2.0000,2.0000
177.0000,1.5140,550.0000,1.0000,1.0000,10.0000,1.0000,2.0000,2.0000
173.0000,1.3356,564.0000,1.0000,1.0000,10.0000,1.0000,2.0000,2.0000
195.0000,0.7909,1212.0000,0.0000,2.0000,11.0000,1.0000,1.0000,3.0000
167.0000,0.2576,783.0000,1.0000,2.0000,11.0000,1.0000,1.0000,3.0000
215.0000,1.0577,1072.0000,0.0000,1.0000,11.0000,1.0000,1.0000,3.0000
161.0000,0.3343,1336.0000,0.0000,0.0000,11.0000,1.0000,1.0000,3.0000
173.0000,0.9571,860.0000,1.0000,2.0000,11.0000,1.0000,1.0000,3.0000
174.0000,1.7877,672.0000,1.0000,2.0000,11.0000,1.0000,1.0000,3.0000
184.0000,0.6664,1697.0000,1.0000,2.0000,11.0000,1.0000,1.0000,3.0000
268.0000,0.9119,938.0000,0.0000,0.0000,11.0000,1.0000,1.0000,3.0000
270.0000,0.1595,1712.0000,0.0000,1.0000,11.0000,1.0000,1.0000,3.0000
246.0000,1.0374,1075.0000,1.0000,1.0000,11.0000,1.0000,1.0000,3.0000
206.0000,0.9421,970.0000,0.0000,1.0000,11.0000,1.0000,1.0000,3.0000
224.0000,1.2858,808.0000,0.0000,0.0000,11.0000,1.0000,1.0000,3.0000
256.0000,1.3012,911.0000,1.0000,1.0000,11.0000,1.0000,1.0000,3.0000
197.0000,0.5887,1398.0000,0.0000,2.0000,11.0000,1.0000,1.0000,3.0000
182.0000,0.5183,865.0000,1.0000,2.0000,11.0000,1.0000,1.0000,3.0000
165.0000,0.5423,710.0000,1.0000,2.0000,11.0000,1.0000,1.0000,3.0000
179.0000,1.3390,856.0000,0.0000,0.0000,11.0000,1.0000,1.0000,3.0000
213.0000,0.7593,1477.0000,0.0000,1.0000,11.0000,1.0000,1.0000,3.0000
229.0000,2.2301,677.0000,1.0000,0.0000,11.0000,1.0000,1.0000,3.0000
169.0000,1.7615,1087.0000,0.0000,2.0000,11.0000,1.0000,1.0000,3.0000
244.0000,1.3100,713.0000,1.0000,1.0000,11.0000,1.0000,1.0000,3.0000
210.0000,0.6374,748.0000,1.0000,0.0000,11.0000,1.0000,1.0000,3.0000
217.0000,-0.1145,1562.0000,1.0000,0.0000,11.0000,1.0000,1.0000,3.0000
174.0000,1.0446,1081.0000,1.0000,2.0000,11.0000,1.0000,1.0000,3.0000
187.0000,1.8296,663.0000,1.0000,1.0000,11.0000,1.0000,1.0000,3.0000
172.0000,1.3350,998.0000,0.0000,2.0000,11.0000,1.0000,1.0000,3.0000
213.0000,1.8815,733.0000,1.0000,1.0000,11.0000,1.0000,1.0000,3.0000
184.0000,1.0497,1057.0000,1.0000,2.0000,11.0000,1.0000,1.0000,3.0000
271.0000,2.6074,729.0000,1.0000,1.0000,11.0000,1.0000,1.0000,3.0000
228.0000,1.5414,743.0000,1.0000,0.0000,11.0000,1.0000,1.0000,3.0000
239.0000,1.9265,710.0000,0.0000,0.0000,11.0000,1.0000,1.0000,3.0000
154.0000,1.5548,809.0000,1.0000,2.0000,11.0000,1.0000,1.0000,3.0000
180.0000,1.8023,681.0000,1.0000,2.0000,11.0000,1.0000,1.0000,3.0000
265.0000,2.0318,939.0000,0.0000,0.0000,11.0000,1.0000,1.0000,3.0000
210.0000,2.6844,626.0000,1.0000,1.0000,11.0000,1.0000,1.0000,3.0000
160.0000,1.2068,608.0000,1.0000,2.0000,11.0000,1.0000,1.0000,3.0000
170.0000,0.9015,588.0000,1.0000,2.0000,11.0000,1.0000,1.0000,3.0000
170.0000,1.1852,652.0000,1.0000,2.0000,11.0000,1.0000,1.0000,3.0000
178.0000,2.4060,698.0000,1.0000,1.0000,11.0000,1.0000,1.0000,3.0000
179.0000,2.5698,921.0000,1.0000,1.0000,11.0000,1.0000,1.0000,3.0000
226.0000,-0.0704,1233.0000,0.0000,0.0000,11.0000,1.0000,1.0000,3.0000
187.0000,2.7558,752.0000,1.0000,1.0000,11.0000,1.0000,1.0000,3.0000
250.0000,-0.4482,960.0000,1.0000,0.0000,11.0000,1.0000,1.0000,3.0000
196.0000,2.1608,861.0000,0.0000,1.0000,11.0000,1.0000,1.0000,3.0000
177.0000,1.2897,842.0000,1.0000,1.0000,11.0000,1.0000,1.0000,3.0000
179.0000,0.9001,715.0000,0.0000,2.0000,11.0000,1.0000,1.0000,3.0000
178.0000,0.9939,773.0000,1.0000,2.0000,11.0000,1.0000,1.0000,3.0000
210.0000,1.8908,557.0000,1.0000,1.0000,11.0000,1.0000,1.0000,3.0000
233.0000,1.1208,849.0000,1.0000,0.0000,11.0000,1.0000,1.0000,3.0000
175.0000,1.4967,741.0000,1.0000,2.0000,11.0000,1.0000,1.0000,3.0000
198.0000,1.9293,634.0000,1.0000,1.0000,11.0000,1.0000,1.0000,3.0000
163.0000,1.0385,812.0000,1.0000,2.0000,11.0000,1.0000,1.0000,3.0000
237.0000,1.2211,859.0000,1.0000,1.0000,11.0000,1.0000,1.0000,3.0000
192.0000,0.8771,845.0000,1.0000,2.0000,11.0000,1.0000,1.0000,3.0000
231.0000,1.9191,945.0000,1.0000,0.0000,11.0000,1.0000,1.0000,3.0000
233.0000,0.2810,1174.0000,0.0000,0.0000,11.0000,1.0000,1.0000,3.0000
234.0000,2.2973,611.0000,0.0000,1.0000,11.0000,1.0000,1.0000,3.0000
226.0000,0.9218,631.0000,1.0000,1.0000,11.0000,1.0000,1.0000,3.0000
227.0000,1.0619,703.0000,1.0000,2.0000,11.0000,1.0000,1.0000,3.0000
243.0000,1.1578,813.0000,1.0000,2.0000,11.0000,1.0000,1.0000,3.0000
223.0000,2.1365,664.0000,1.0000,0.0000,11.0000,1.0000,1.0000,3.0000
226.0000,1.5672,627.0000,0.0000,1.0000,11.0000,1.0000,1.0000,3.0000
179.0000,0.6694,1062.0000,1.0000,1.0000,11.0000,1.0000,1.0000,3.0000
236.0000,3.6519,808.0000,1.0000,1.0000,11.0000,1.0000,1.0000,3.0000
165.0000,1.2581,510.0000,1.0000,2.0000,11.0000,1.0000,1.0000,3.0000
185.0000,0.9170,700.0000,1.0000,1.0000,11.0000,1.0000,1.0000,3.0000
208.0000,0.8939,636.0000,1.0000,2.0000,11.0000,1.0000,1.0000,3.0000
264.0000,1.1912,758.0000,1.0000,2.0000,11.0000,1.0000,1.0000,3.0000
217.0000,1.2591,576.0000,0.0000,0.0000,11.0000,1.0000,1.0000,3.0000
246.0000,1.9549,581.0000,1.0000,0.0000,11.0000,1.0000,1.0000,3.0000
215.0000,1.4126,588.0000,0.0000,0.0000,11.0000,1.0000,1.0000,3.0000
222.0000,1.3488,531.0000,0.0000,1.0000,11.0000,1.0000,1.0000,3.0000
171.0000,0.7262,908.0000,1.0000,2.0000,11.0000,1.0000,1.0000,3.0000
173.0000,0.1717,735.0000,1.0000,2.0000,11.0000,1.0000,1.0000,3.0000
193.0000,1.5233,825.0000,1.0000,2.0000,11.0000,1.0000,1.0000,3.0000
164.0000,1.3362,733.0000,0.0000,2.0000,11.0000,1.0000,1.0000,3.0000
210.0000,0.5472,545.0000,1.0000,2.0000,11.0000,1.0000,1.0000,3.0000
230.0000,2.9751,820.0000,0.0000,0.0000,11.0000,1.0000,1.0000,3.0000
253.0000,0.3806,673.0000,1.0000,2.0000,11.0000,1.0000,1.0000,3.0000
216.0000,1.5155,809.0000,1.0000,0.0000,11.0000,1.0000,1.0000,3.0000
185.0000,1.7846,751.0000,1.0000,1.0000,11.0000,1.0000,1.0000,3.0000
196.0000,1.4464,939.0000,1.0000,1.0000,11.0000,1.0000,1.0000,3.0000
232.0000,-0.0952,538.0000,1.0000,1.0000,11.0000,1.0000,1.0000,3.0000
257.0000,1.5467,725.0000,0.0000,0.0000,11.0000,1.0000,1.0000,3.0000
257.0000,1.1884,662.0000,1.0000,1.0000,11.0000,1.0000,1.0000,3.0000
252.0000,1.4202,634.0000,0.0000,2.0000,11.0000,1.0000,1.0000,3.0000
172.0000,0.8200,516.0000,1.0000,2.0000,11.0000,1.0000,1.0000,3.0000
191.0000,0.7993,792.0000,1.0000,1.0000,11.0000,1.0000,1.0000,3.0000
202.0000,0.3612,703.0000,1.0000,2.0000,11.0000,1.0000,1.0000,3.0000
253.0000,2.1438,545.0000,1.0000,1.0000,11.0000,1.0000,1.0000,3.0000
240.0000,2.3069,782.0000,1.0000,0.0000,11.0000,1.0000,1.0000,3.0000
163.0000,1.3427,763.0000,1.0000,2.0000,11.0000,1.0000,1.0000,3.0000
238.0000,2.6514,651.0000,1.0000,0.0000,11.0000,1.0000,1.0000,3.0000
268.0000,0.5696,584.0000,1.0000,1.0000,11.0000,1.0000,1.0000,3.0000
214.0000,1.3641,899.0000,0.0000,1.0000,11.0000,1.0000,1.0000,3.0000
166.0000,1.3848,661.0000,1.0000,2.0000,11.0000,1.0000,1.0000,3.0000
176.0000,1.7923,607.0000,0.0000,1.0000,11.0000,1.0000,1.0000,3.0000
260.0000,1.8374,951.0000,1.0000,1.0000,11.0000,1.0000,1.0000,3.0000
186.0000,0.5843,576.0000,1.0000,1.0000,11.0000,1.0000,1.0000,3.0000
224.0000,2.1800,767.0000,0.0000,0.0000,11.0000,1.0000,1.0000,3.0000
240.0000,1.0959,908.0000,0.0000,0.0000,11.0000,1.0000,1.0000,3.0000
252.0000,3.2144,670.0000,1.0000,0.0000,11.0000,1.0000,1.0000,3.0000
176.0000,1.8984,487.0000,1.0000,1.0000,11.0000,1.0000,1.0000,3.0000
172.0000,1.5143,540.0000,1.0000,2.0000,11.0000,1.0000,1.0000,3.0000
262.0000,1.7903,510.0000,0.0000,1.0000,11.0000,1.0000,1.0000,3.0000
191.0000,1.5137,504.0000,0.0000,1.0000,11.0000,1.0000,1.0000,3.0000
210.0000,1.3273,612.0000,1.0000,1.0000,11.0000,1.0000,1.0000,3.0000
221.0000,2.0024,791.0000,1.0000,1.0000,11.0000,1.0000,1.0000,3.0000
209.0000,1.1085,672.0000,1.0000,2.0000,11.0000,1.0000,1.0000,3.0000
182.0000,1.1557,638.0000,1.0000,2.0000,11.0000,1.0000,1.0000,3.0000
217.0000,1.0748,485.0000,1.0000,0.0000,11.0000,1.0000,1.0000,3.0000
174.0000,1.9206,644.0000,1.0000,2.0000,11.0000,1.0000,1.0000,3.0000
185.0000,2.6681,557.0000,0.0000,1.0000,11.0000,1.0000,1.0000,3.0000
229.0000,1.9481,758.0000,1.0000,1.0000,11.0000,1.0000,1.0000,3.0000
179.0000,1.9818,955.0000,1.0000,2.0000,11.0000,1.0000,1.0000,3.0000
167.0000,1.5140,635.0000,1.0000,2.0000,11.0000,1.0000,1.0000,3.0000
264.0000,1.6519,901.0000,1.0000,0.0000,11.0000,1.0000,1.0000,3.0000
213.0000,2.2609,627.0000,1.0000,1.0000,11.0000,1.0000,1.0000,3.0000
199.0000,-0.1362,657.0000,0.0000,0.0000,11.0000,1.0000,1.0000,3.0000
174.0000,1.6610,811.0000,1.0000,2.0000,11.0000,1.0000,1.0000,3.0000
261.0000,0.9745,591.0000,1.0000,2.0000,11.0000,1.0000,1.0000,3.0000
207.0000,1.9585,531.0000,1.0000,2.0000,11.0000,1.0000,1.0000,3.0000
271.0000,1.6168,565.0000,1.0000,1.0000,11.0000,1.0000,1.0000,3.0000
272.0000,1.9249,709.0000,0.0000,1.0000,11.0000,1.0000,1.0000,3.0000
188.0000,0.8285,746.0000,1.0000,2.0000,11.0000,1.0000,1.0000,3.0000
180.0000,1.0014,921.0000,0.0000,2.0000,11.0000,1.0000,1.0000,3.0000
250.0000,0.8049,657.0000,1.0000,2.0000,11.0000,1.0000,1.0000,3.0000
201.0000,1.5159,645.0000,0.0000,0.0000,11.0000,1.0000,1.0000,3.0000
161.0000,1.3899,573.0000,1.0000,2.0000,11.0000,1.0000,1.0000,3.0000
172.0000,1.3700,903.0000,0.0000,2.0000,11.0000,1.0000,1.0000,3.0000
239.0000,2.8298,614.0000,1.0000,0.0000,11.0000,1.0000,1.0000,3.0000
211.0000,1.5312,621.0000,1.0000,1.0000,11.0000,1.0000,1.0000,3.0000
197.0000,1.0513,611.0000,0.0000,1.0000,11.0000,1.0000,1.0000,3.0000
268.0000,1.0341,678.0000,1.0000,1.0000,11.0000,1.0000,1.0000,3.0000
175.0000,1.3066,541.0000,1.0000,2.0000,11.0000,1.0000,1.0000,3.0000
173.0000,0.7123,622.0000,1.0000,2.0000,11.0000,1.0000,1.0000,3.0000
253.0000,2.0139,634.0000,1.0000,0.0000,11.0000,1.0000,1.0000,3.0000
194.0000,3.4673,810.0000,0.0000,1.0000,11.0000,1.0000,1.0000,3.0000
178.0000,2.8564,878.0000,0.0000,1.0000,11.0000,1.0000,1.0000,3.0000
273.0000,0.6488,659.0000,1.0000,2.0000,11.0000,1.0000,1.0000,3.0000
188.0000,1.8519,721.0000,1.0000,1.0000,11.0000,1.0000,1.0000,3.0000
190.0000,0.6263,779.0000,0.0000,2.0000,11.0000,1.0000,1.0000,3.0000
194.0000,1.2248,961.0000,1.0000,1.0000,11.0000,1.0000,1.0000,3.0000
180.0000,1.3816,962.0000,1.0000,1.0000,11.0000,1.0000,1.0000,3.0000
177.0000,2.3444,855.0000,0.0000,1.0000,11.0000,1.0000,1.0000,3.0000
209.0000,0.6098,936.0000,1.0000,0.0000,11.0000,1.0000,1.0000,3.0000
169.0000,1.6064,609.0000,1.0000,1.0000,11.0000,1.0000,1.0000,3.0000
173.0000,2.5619,617.0000,1.0000,1.0000,11.0000,1.0000,1.0000,3.0000
224.0000,1.7563,625.0000,0.0000,1.0000,11.0000,1.0000,1.0000,3.0000
273.0000,0.6974,730.0000,1.0000,0.0000,11.0000,1.0000,1.0000,3.0000
210.0000,1.8649,801.0000,1.0000,0.0000,11.0000,1.0000,1.0000,3.0000
185.0000,1.7407,664.0000,1.0000,1.0000,11.0000,1.0000,1.0000,3.0000
225.0000,2.2124,664.0000,1.0000,0.0000,11.0000,1.0000,1.0000,3.0000
235.0000,1.3022,687.0000,1.0000,2.0000,11.0000,1.0000,1.0000,3.0000
208.0000,2.1451,566.0000,1.0000,1.0000,11.0000,1.0000,1.0000,3.0000
256.0000,1.8926,1120.0000,1.0000,0.0000,11.0000,1.0000,1.0000,3.0000
223.0000,3.1792,736.0000,0.0000,1.0000,11.0000,1.0000,1.0000,3.0000
200.0000,0.9671,1062.0000,1.0000,0.0000,11.0000,1.0000,1.0000,3.0000
259.0000,2.3288,841.0000,0.0000,0.0000,11.0000,1.0000,1.0000,3.0000
182.0000,1.2649,856.0000,0.0000,2.0000,11.0000,1.0000,1.0000,3.0000
242.0000,0.6410,1071.0000,1.0000,0.0000,11.0000,1.0000,1.0000,3.0000
158.0000,1.8452,621.0000,1.0000,2.0000,11.0000,1.0000,1.0000,3.0000
198.0000,0.2824,888.0000,1.0000,0.0000,11.0000,1.0000,1.0000,3.0000
174.0000,0.9415,890.0000,1.0000,2.0000,11.0000,1.0000,1.0000,3.0000
223.0000,0.8617,872.0000,1.0000,0.0000,11.0000,1.0000,1.0000,3.0000
248.0000,2.6426,796.0000,0.0000,0.0000,11.0000,1.0000,1.0000,3.0000
242.0000,0.9760,730.0000,1.0000,0.0000,11.0000,1.0000,1.0000,3.0000
220.0000,1.2802,733.0000,0.0000,0.0000,11.0000,1.0000,1.0000,3.0000
185.0000,1.2392,724.0000,0.0000,2.0000,11.0000,1.0000,1.0000,3.0000
199.0000,1.7199,652.0000,1.0000,2.0000,11.0000,1.0000,1.0000,3.0000
219.0000,1.3153,1160.0000,0.0000,0.0000,11.0000,1.0000,1.0000,3.0000
178.0000,1.1958,754.0000,0.0000,2.0000,11.0000,1.0000,1.0000,3.0000
239.0000,1.2586,781.0000,1.0000,0.0000,11.0000,1.0000,1.0000,3.0000
209.0000,1.8690,569.0000,1.0000,1.0000,11.0000,1.0000,1.0000,3.0000
186.0000,1.3008,652.0000,0.0000,1.0000,11.0000,1.0000,1.0000,3.0000
168.0000,1.1812,552.0000,1.0000,2.0000,11.0000,1.0000,1.0000,3.0000
201.0000,1.7753,814.0000,1.0000,1.0000,11.0000,1.0000,1.0000,3.0000
209.0000,1.1078,784.0000,1.0000,0.0000,11.0000,1.0000,1.0000,3.0000
203.0000,1.6544,793.0000,0.0000,1.0000,11.0000,1.0000,1.0000,3.0000
200.0000,1.5717,729.0000,1.0000,2.0000,11.0000,1.0000,1.0000,3.0000
220.0000,2.4608,565.0000,0.0000,1.0000,11.0000,1.0000,1.0000,3.0000
240.0000,1.6736,805.0000,0.0000,0.0000,11.0000,1.0000,1.0000,3.0000
236.0000,1.4384,690.0000,1.0000,1.0000,11.0000,1.0000,1.0000,3.0000
171.0000,1.7458,790.0000,0.0000,2.0000,11.0000,1.0000,1.0000,3.0000
233.0000,1.3286,778.0000,1.0000,1.0000,11.0000,1.0000,1.0000,3.0000
152.0000,2.0006,1020.0000,1.0000,1.0000,11.0000,1.0000,1.0000,3.0000
231.0000,1.2953,664.0000,1.0000,0.0000,11.0000,1.0000,1.0000,3.0000
229.0000,1.4635,1043.0000,1.0000,0.0000,11.0000,1.0000,1.0000,3.0000
229.0000,2.1241,913.0000,1.0000,1.0000,11.0000,1.0000,1.0000,3.0000
228.0000,1.7500,882.0000,0.0000,0.0000,11.0000,1.0000,1.0000,3.0000
171.0000,1.3285,786.0000,0.0000,2.0000,11.0000,1.0000,1.0000,3.0000
269.0000,1.9212,587.0000,1.0000,1.0000,11.0000,1.0000,1.0000,3.0000
181.0000,2.1092,745.0000,1.0000,1.0000,11.0000,1.0000,1.0000,3.0000
234.0000,1.3961,832.0000,1.0000,0.0000,11.0000,1.0000,1.0000,3.0000
250.0000,2.2011,870.0000,1.0000,0.0000,11.0000,1.0000,1.0000,3.0000
221.0000,1.7184,855.0000,1.0000,0.0000,11.0000,1.0000,1.0000,3.0000
246.0000,0.5737,903.0000,1.0000,0.0000,11.0000,1.0000,1.0000,3.0000
217.0000,1.8557,1023.0000,1.0000,2.0000,11.0000,1.0000,1.0000,3.0000
190.0000,1.0400,666.0000,0.0000,2.0000,11.0000,1.0000,1.0000,3.0000
193.0000,1.6711,634.0000,1.0000,2.0000,11.0000,1.0000,1.0000,3.0000
178.0000,1.8665,923.0000,1.0000,2.0000,11.0000,1.0000,1.0000,3.0000
168.0000,1.1779,612.0000,1.0000,2.0000,11.0000,1.0000,1.0000,3.0000
176.0000,1.1596,561.0000,1.0000,2.0000,11.0000,1.0000,1.0000,3.0000
217.0000,2.2900,722.0000,0.0000,0.0000,11.0000,1.0000,1.0000,3.0000
179.0000,0.9199,862.0000,0.0000,2.0000,11.0000,1.0000,1.0000,3.0000
263.0000,1.0738,656.0000,0.0000,2.0000,11.0000,1.0000,1.0000,3.0000
220.0000,1.1647,754.0000,1.0000,1.0000,11.0000,1.0000,1.0000,3.0000
175.0000,1.7328,695.0000,1.0000,2.0000,11.0000,1.0000,1.0000,3.0000
247.0000,1.0939,549.0000,1.0000,1.0000,11.0000,1.0000,1.0000,3.0000
156.0000,1.1757,600.0000,1.0000,2.0000,11.0000,1.0000,1.0000,3.0000
255.0000,1.3761,810.0000,1.0000,0.0000,11.0000,1.0000,1.0000,3.0000
180.0000,0.7802,917.0000,1.0000,2.0000,11.0000,1.0000,1.0000,3.0000
212.0000,2.4684,1028.0000,0.0000,0.0000,11.0000,1.0000,1.0000,3.0000
251.0000,3.0171,846.0000,0.0000,1.0000,11.0000,1.0000,1.0000,3.0000
239.0000,2.2171,602.0000,1.0000,1.0000,11.0000,1.0000,1.0000,3.0000
244.0000,3.4363,932.0000,1.0000,0.0000,11.0000,1.0000,1.0000,3.0000
218.0000,2.1546,718.0000,1.0000,0.0000,11.0000,1.0000,1.0000,3.0000
225.0000,2.0323,665.0000,1.0000,0.0000,11.0000,1.0000,1.0000,3.0000
237.0000,2.7646,687.0000,1.0000,0.0000,11.0000,1.0000,1.0000,3.0000
164.0000,1.2210,681.0000,1.0000,2.0000,11.0000,1.0000,1.0000,3.0000
183.0000,1.0643,585.0000,1.0000,2.0000,11.0000,1.0000,1.0000,3.0000
189.0000,3.3206,638.0000,1.0000,1.0000,11.0000,1.0000,1.0000,3.0000
185.0000,1.7395,1018.0000,1.0000,1.0000,11.0000,1.0000,1.0000,3.0000
199.0000,-0.0240,861.0000,1.0000,0.0000,11.0000,1.0000,1.0000,3.0000
192.0000,0.9479,801.0000,0.0000,2.0000,11.0000,1.0000,1.0000,3.0000
233.0000,2.3400,754.0000,1.0000,0.0000,11.0000,1.0000,1.0000,3.0000
189.0000,1.6942,896.0000,0.0000,2.0000,11.0000,1.0000,1.0000,3.0000
270.0000,0.8841,1186.0000,0.0000,2.0000,11.0000,1.0000,1.0000,3.0000
227.0000,1.5431,735.0000,1.0000,0.0000,11.0000,1.0000,1.0000,3.0000
251.0000,2.5081,812.0000,1.0000,1.0000,11.0000,1.0000,1.0000,3.0000
210.0000,0.5015,781.0000,1.0000,1.0000,11.0000,1.0000,1.0000,3.0000
204.0000,0.6382,777.0000,0.0000,1.0000,11.0000,1.0000,1.0000,3.0000
182.0000,1.1545,583.0000,0.0000,2.0000,11.0000,1.0000,1.0000,3.0000
208.0000,1.9780,917.0000,0.0000,1.0000,11.0000,1.0000,1.0000,3.0000
203.0000,1.8079,625.0000,1.0000,2.0000,11.0000,1.0000,1.0000,3.0000
198.0000,2.0744,545.0000,1.0000,1.0000,11.0000,1.0000,1.0000,3.0000
273.0000,1.4554,776.0000,0.0000,2.0000,11.0000,1.0000,1.0000,3.0000
203.0000,2.7053,667.0000,0.0000,1.0000,11.0000,1.0000,1.0000,3.0000
268.0000,0.8686,946.0000,1.0000,2.0000,11.0000,1.0000,1.0000,3.0000
188.0000,1.2150,938.0000,1.0000,2.0000,11.0000,1.0000,1.0000,3.0000
221.0000,0.8138,701.0000,1.0000,2.0000,11.0000,1.0000,1.0000,3.0000
185.0000,1.1383,589.0000,1.0000,2.0000,11.0000,1.0000,1.0000,3.0000
184.0000,1.9668,748.0000,1.0000,2.0000,11.0000,1.0000,1.0000,3.0000
193.0000,0.5361,563.0000,0.0000,1.0000,11.0000,1.0000,1.0000,3.0000
213.0000,3.3136,862.0000,1.0000,1.0000,11.0000,1.0000,1.0000,3.0000
239.0000,2.3084,820.0000,1.0000,0.0000,11.0000,1.0000,1.0000,3.0000
169.0000,1.3686,880.0000,1.0000,2.0000,11.0000,1.0000,1.0000,3.0000
262.0000,2.4477,789.0000,1.0000,1.0000,11.0000,1.0000,1.0000,3.0000
196.0000,1.4871,680.0000,1.0000,2.0000,11.0000,1.0000,1.0000,3.0000
205.0000,2.2094,898.0000,1.0000,1.0000,11.0000,1.0000,1.0000,3.0000
170.0000,1.2178,723.0000,1.0000,2.0000,11.0000,1.0000,1.0000,3.0000
165.0000,1.1438,780.0000,1.0000,2.0000,11.0000,1.0000,1.0000,3.0000
231.0000,1.2144,913.0000,1.0000,0.0000,11.0000,1.0000,1.0000,3.0000
248.0000,2.2867,781.0000,1.0000,0.0000,11.0000,1.0000,1.0000,3.0000
190.0000,1.0629,924.0000,0.0000,2.0000,11.0000,1.0000,1.0000,3.0000
199.0000,2.0956,623.0000,1.0000,1.0000,11.0000,1.0000,1.0000,3.0000
231.0000,2.4804,823.0000,1.0000,0.0000,11.0000,1.0000,1.0000,3.0000
214.0000,0.5883,896.0000,0.0000,1.0000,11.0000,1.0000,1.0000,3.0000
241.0000,1.8404,751.0000,1.0000,0.0000,11.0000,1.0000,1.0000,3.0000
230.0000,1.8598,808.0000,1.0000,1.0000,11.0000,1.0000,1.0000,3.0000
267.0000,1.0556,882.0000,0.0000,2.0000,11.0000,1.0000,1.0000,3.0000
225.0000,1.3880,779.0000,1.0000,1.0000,11.0000,1.0000,1.0000,3.0000
271.0000,0.9072,706.0000,1.0000,2.0000,11.0000,1.0000,1.0000,3.0000
254.0000,2.6727,909.0000,0.0000,0.0000,11.0000,1.0000,1.0000,3.0000
189.0000,0.5852,814.0000,1.0000,1.0000,11.0000,1.0000,1.0000,3.0000
262.0000,1.5903,932.0000,0.0000,0.0000,11.0000,1.0000,1.0000,3.0000
154.0000,0.5877,710.0000,1.0000,2.0000,12.0000,1.0000,2.0000,3.0000
215.0000,0.5753,615.0000,1.0000,1.0000,12.0000,1.0000,2.0000,3.0000
267.0000,1.4922,807.0000,1.0000,1.0000,12.0000,1.0000,2.0000,3.0000
210.0000,1.9645,576.0000,0.0000,1.0000,12.0000,1.0000,2.0000,3.0000
185.0000,1.1359,901.0000,1.0000,2.0000,12.0000,1.0000,2.0000,3.0000
247.0000,0.7437,1036.0000,1.0000,0.0000,12.0000,1.0000,2.0000,3.0000
214.0000,1.0193,948.0000,1.0000,2.0000,12.0000,1.0000,2.0000,3.0000
179.0000,1.1414,1166.0000,1.0000,2.0000,12.0000,1.0000,2.0000,3.0000
273.0000,1.0601,753.0000,1.0000,1.0000,12.0000,1.0000,2.0000,3.0000
186.0000,1.2097,639.0000,1.0000,1.0000,12.0000,1.0000,2.0000,3.0000
234.0000,2.3358,878.0000,1.0000,1.0000,12.0000,1.0000,2.0000,3.0000
200.0000,2.8292,797.0000,1.0000,1.0000,12.0000,1.0000,2.0000,3.0000
207.0000,1.8224,945.0000,1.0000,0.0000,12.0000,1.0000,2.0000,3.0000
258.0000,0.3687,826.0000,1.0000,0.0000,12.0000,1.0000,2.0000,3.0000
256.0000,1.1856,1024.0000,1.0000,0.0000,12.0000,1.0000,2.0000,3.0000
263.0000,1.5669,1177.0000,0.0000,0.0000,12.0000,1.0000,2.0000,3.0000
176.0000,0.5651,1113.0000,1.0000,2.0000,12.0000,1.0000,2.0000,3.0000
250.0000,1.0088,979.0000,0.0000,0.0000,12.0000,1.0000,2.0000,3.0000
161.0000,1.8598,970.0000,1.0000,1.0000,12.0000,1.0000,2.0000,3.0000
236.0000,0.3929,1111.0000,0.0000,1.0000,12.0000,1.0000,2.0000,3.0000
197.0000,0.6777,648.0000,1.0000,2.0000,12.0000,1.0000,2.0000,3.0000
272.0000,1.2667,1043.0000,0.0000,0.0000,12.0000,1.0000,2.0000,3.0000
195.0000,1.5183,976.0000,0.0000,1.0000,12.0000,1.0000,2.0000,3.0000
202.0000,1.4967,1138.0000,1.0000,1.0000,12.0000,1.0000,2.0000,3.0000
191.0000,1.0667,931.0000,1.0000,2.0000,12.0000,1.0000,2.0000,3.0000
178.0000,0.7418,779.0000,1.0000,0.0000,12.0000,1.0000,2.0000,3.0000
231.0000,1.7226,724.0000,1.0000,0.0000,12.0000,1.0000,2.0000,3.0000
236.0000,1.4788,1179.0000,0.0000,0.0000,12.0000,1.0000,2.0000,3.0000
167.0000,1.7433,681.0000,1.0000,2.0000,12.0000,1.0000,2.0000,3.0000
266.0000,1.2992,707.0000,1.0000,1.0000,12.0000,1.0000,2.0000,3.0000
217.0000,1.4189,493.0000,1.0000,1.0000,12.0000,1.0000,2.0000,3.0000
240.0000,1.6430,738.0000,1.0000,0.0000,12.0000,1.0000,2.0000,3.0000
193.0000,1.8242,506.0000,0.0000,1.0000,12.0000,1.0000,2.0000,3.0000
182.0000,1.4973,557.0000,1.0000,1.0000,12.0000,1.0000,2.0000,3.0000
166.0000,1.8659,562.0000,1.0000,2.0000,12.0000,1.0000,2.0000,3.0000
164.0000,1.2343,1041.0000,1.0000,2.0000,12.0000,1.0000,2.0000,3.0000
165.0000,1.9842,819.0000,1.0000,1.0000,12.0000,1.0000,2.0000,3.0000
207.0000,1.4181,1032.0000,0.0000,0.0000,12.0000,1.0000,2.0000,3.0000
199.0000,0.4281,680.0000,1.0000,1.0000,12.0000,1.0000,2.0000,3.0000
236.0000,2.1259,560.0000,0.0000,0.0000,12.0000,1.0000,2.0000,3.0000
172.0000,1.7605,573.0000,1.0000,2.0000,12.0000,1.0000,2.0000,3.0000
217.0000,2.3272,617.0000,0.0000,1.0000,12.0000,1.0000,2.0000,3.0000
203.0000,2.0169,848.0000,1.0000,1.0000,12.0000,1.0000,2.0000,3.0000
236.0000,1.2742,698.0000,1.0000,1.0000,12.0000,1.0000,2.0000,3.0000
183.0000,2.3272,900.0000,1.0000,1.0000,12.0000,1.0000,2.0000,3.0000
152.0000,0.4831,721.0000,1.0000,1.0000,12.0000,1.0000,2.0000,3.0000
169.0000,1.3340,958.0000,0.0000,2.0000,12.0000,1.0000,2.0000,3.0000
264.0000,1.4030,899.0000,0.0000,2.0000,12.0000,1.0000,2.0000,3.0000
224.0000,2.1092,1167.0000,1.0000,1.0000,12.0000,1.0000,2.0000,3.0000
185.0000,1.3035,734.0000,1.0000,1.0000,12.0000,1.0000,2.0000,3.0000
198.0000,2.3621,830.0000,0.0000,1.0000,12.0000,1.0000,2.0000,3.0000
178.0000,1.4111,571.0000,1.0000,2.0000,12.0000,1.0000,2.0000,3.0000
161.0000,1.6536,598.0000,1.0000,2.0000,12.0000,1.0000,2.0000,3.0000
177.0000,0.8818,724.0000,1.0000,2.0000,12.0000,1.0000,2.0000,3.0000
173.0000,1.0028,586.0000,0.0000,2.0000,12.0000,1.0000,2.0000,3.0000
205.0000,1.8012,665.0000,1.0000,1.0000,12.0000,1.0000,2.0000,3.0000
234.0000,1.4687,763.0000,1.0000,0.0000,12.0000,1.0000,2.0000,3.0000
176.0000,0.4326,809.0000,0.0000,1.0000,12.0000,1.0000,2.0000,3.0000
233.0000,1.4956,909.0000,1.0000,0.0000,12.0000,1.0000,2.0000,3.0000
199.0000,1.0550,809.0000,0.0000,2.0000,12.0000,1.0000,2.0000,3.0000
264.0000,2.1628,757.0000,1.0000,0.0000,12.0000,1.0000,2.0000,3.0000
247.0000,2.8706,913.0000,1.0000,0.0000,12.0000,1.0000,2.0000,3.0000
167.0000,1.9897,809.0000,0.0000,2.0000,12.0000,1.0000,2.0000,3.0000
171.0000,0.7683,832.0000,1.0000,2.0000,12.0000,1.0000,2.0000,3.0000
217.0000,1.8527,898.0000,0.0000,0.0000,12.0000,1.0000,2.0000,3.0000
257.0000,1.2087,747.0000,1.0000,0.0000,12.0000,1.0000,2.0000,3.0000
174.0000,1.1940,901.0000,0.0000,2.0000,12.0000,1.0000,2.0000,3.0000
191.0000,2.2053,893.0000,1.0000,1.0000,12.0000,1.0000,2.0000,3.0000
218.0000,1.6709,705.0000,0.0000,0.0000,12.0000,1.0000,2.0000,3.0000
201.0000,2.6167,766.0000,1.0000,1.0000,12.0000,1.0000,2.0000,3.0000
255.0000,1.9797,848.0000,0.0000,0.0000,12.0000,1.0000,2.0000,3.0000
247.0000,0.7240,631.0000,1.0000,1.0000,12.0000,1.0000,2.0000,3.0000
167.0000,1.0138,589.0000,1.0000,2.0000,12.0000,1.0000,2.0000,3.0000
261.0000,1.1580,609.0000,0.0000,1.0000,12.0000,1.0000,2.0000,3.0000
253.0000,2.1102,714.0000,0.0000,0.0000,12.0000,1.0000,2.0000,3.0000
270.0000,0.5439,874.0000,0.0000,0.0000,12.0000,1.0000,2.0000,3.0000
269.0000,0.8357,594.0000,1.0000,2.0000,12.0000,1.0000,2.0000,3.0000
233.0000,2.2258,810.0000,1.0000,0.0000,12.0000,1.0000,2.0000,3.0000
268.0000,0.9621,931.0000,1.0000,1.0000,12.0000,1.0000,2.0000,3.0000
212.0000,1.1254,628.0000,0.0000,0.0000,12.0000,1.0000,2.0000,3.0000
172.0000,1.7797,865.0000,1.0000,2.0000,12.0000,1.0000,2.0000,3.0000
171.0000,1.0764,676.0000,1.0000,2.0000,12.0000,1.0000,2.0000,3.0000
267.0000,0.4019,622.0000,1.0000,0.0000,12.0000,1.0000,2.0000,3.0000
239.0000,2.7239,847.0000,1.0000,0.0000,12.0000,1.0000,2.0000,3.0000
218.0000,2.3971,684.0000,0.0000,1.0000,12.0000,1.0000,2.0000,3.0000
223.0000,2.0478,562.0000,1.0000,0.0000,12.0000,1.0000,2.0000,3.0000
202.0000,2.1137,804.0000,1.0000,1.0000,12.0000,1.0000,2.0000,3.0000
188.0000,0.6316,902.0000,0.0000,2.0000,12.0000,1.0000,2.0000,3.0000
176.0000,1.5887,815.0000,0.0000,2.0000,12.0000,1.0000,2.0000,3.0000
256.0000,0.9581,777.0000,0.0000,0.0000,12.0000,1.0000,2.0000,3.0000
183.0000,0.9680,829.0000,1.0000,2.0000,12.0000,1.0000,2.0000,3.0000
260.0000,1.3673,803.0000,1.0000,0.0000,12.0000,1.0000,2.0000,3.0000
156.0000,2.0198,902.0000,0.0000,2.0000,12.0000,1.0000,2.0000,3.0000
230.0000,1.4008,603.0000,1.0000,0.0000,12.0000,1.0000,2.0000,3.0000
194.0000,1.4285,608.0000,1.0000,2.0000,12.0000,1.0000,2.0000,3.0000
218.0000,1.2340,897.0000,1.0000,0.0000,12.0000,1.0000,2.0000,3.0000
239.0000,1.1346,794.0000,1.0000,0.0000,12.0000,1.0000,2.0000,3.0000
221.0000,0.6623,918.0000,1.0000,1.0000,12.0000,1.0000,2.0000,3.0000
258.0000,1.4945,791.0000,1.0000,0.0000,12.0000,1.0000,2.0000,3.0000
225.0000,2.1870,846.0000,1.0000,1.0000,12.0000,1.0000,2.0000,3.0000
175.0000,1.1895,956.0000,1.0000,2.0000,12.0000,1.0000,2.0000,3.0000
180.0000,1.5330,1091.0000,1.0000,1.0000,12.0000,1.0000,2.0000,3.0000
241.0000,0.7815,920.0000,0.0000,2.0000,12.0000,1.0000,2.0000,3.0000
271.0000,0.7510,789.0000,0.0000,0.0000,12.0000,1.0000,2.0000,3.0000
203.0000,1.3703,726.0000,1.0000,1.0000,12.0000,1.0000,2.0000,3.0000
246.0000,1.3810,831.0000,1.0000,0.0000,12.0000,1.0000,2.0000,3.0000
231.0000,0.8918,710.0000,1.0000,1.0000,12.0000,1.0000,2.0000,3.0000
220.0000,1.9981,539.0000,1.0000,1.0000,12.0000,1.0000,2.0000,3.0000
257.0000,1.8098,1058.0000,0.0000,0.0000,12.0000,1.0000,2.0000,3.0000
269.0000,2.9327,754.0000,1.0000,1.0000,12.0000,1.0000,2.0000,3.0000
166.0000,0.9137,519.0000,1.0000,2.0000,12.0000,1.0000,2.0000,3.0000
169.0000,1.4785,565.0000,1.0000,1.0000,12.0000,1.0000,2.0000,3.0000
214.0000,2.5774,838.0000,0.0000,1.0000,12.0000,1.0000,2.0000,3.0000
198.0000,0.5786,597.0000,1.0000,2.0000,12.0000,1.0000,2.0000,3.0000
215.0000,2.4998,574.0000,0.0000,1.0000,12.0000,1.0000,2.0000,3.0000
256.0000,1.1201,556.0000,0.0000,0.0000,12.0000,1.0000,2.0000,3.0000
230.0000,1.8119,760.0000,1.0000,0.0000,12.0000,1.0000,2.0000,3.0000
161.0000,1.4254,658.0000,0.0000,2.0000,12.0000,1.0000,2.0000,3.0000
175.0000,1.6757,1038.0000,1.0000,1.0000,12.0000,1.0000,2.0000,3.0000
228.0000,1.8351,862.0000,1.0000,0.0000,12.0000,1.0000,2.0000,3.0000
273.0000,1.2234,806.0000,0.0000,0.0000,12.0000,1.0000,2.0000,3.0000
271.0000,0.3971,587.0000,1.0000,2.0000,12.0000,1.0000,2.0000,3.0000
216.0000,0.8999,641.0000,1.0000,2.0000,12.0000,1.0000,2.0000,3.0000
206.0000,0.9361,912.0000,1.0000,2.0000,12.0000,1.0000,2.0000,3.0000
235.0000,2.7838,587.0000,1.0000,0.0000,12.0000,1.0000,2.0000,3.0000
218.0000,3.2935,802.0000,0.0000,1.0000,12.0000,1.0000,2.0000,3.0000
249.0000,1.0686,823.0000,0.0000,1.0000,12.0000,1.0000,2.0000,3.0000
186.0000,2.1386,855.0000,0.0000,2.0000,12.0000,1.0000,2.0000,3.0000
202.0000,1.5395,778.0000,0.0000,0.0000,12.0000,1.0000,2.0000,3.0000
253.0000,1.2989,703.0000,1.0000,0.0000,12.0000,1.0000,2.0000,3.0000
183.0000,0.8855,838.0000,1.0000,2.0000,12.0000,1.0000,2.0000,3.0000
201.0000,2.1372,448.0000,0.0000,1.0000,12.0000,1.0000,2.0000,3.0000
186.0000,1.1846,795.0000,0.0000,2.0000,12.0000,1.0000,2.0000,3.0000
186.0000,1.3868,641.0000,0.0000,1.0000,12.0000,1.0000,2.0000,3.0000
261.0000,1.0429,965.0000,1.0000,0.0000,12.0000,1.0000,2.0000,3.0000
206.0000,1.0254,695.0000,1.0000,0.0000,12.0000,1.0000,2.0000,3.0000
270.0000,1.1562,693.0000,1.0000,2.0000,12.0000,1.0000,2.0000,3.0000
239.0000,1.6488,559.0000,1.0000,1.0000,12.0000,1.0000,2.0000,3.0000
215.0000,1.5679,702.0000,0.0000,0.0000,12.0000,1.0000,2.0000,3.0000
193.0000,0.8683,1038.0000,1.0000,0.0000,12.0000,1.0000,2.0000,3.0000
162.0000,0.8822,482.0000,1.0000,2.0000,12.0000,1.0000,2.0000,3.0000
216.0000,1.2670,829.0000,0.0000,0.0000,12.0000,1.0000,2.0000,3.0000
270.0000,1.7008,780.0000,1.0000,0.0000,12.0000,1.0000,2.0000,3.0000
165.0000,1.2633,849.0000,1.0000,2.0000,12.0000,1.0000,2.0000,3.0000
236.0000,1.3456,724.0000,0.0000,0.0000,12.0000,1.0000,2.0000,3.0000
179.0000,1.3316,723.0000,0.0000,2.0000,12.0000,1.0000,2.0000,3.0000
208.0000,1.3845,609.0000,0.0000,1.0000,12.0000,1.0000,2.0000,3.0000
168.0000,0.9472,598.0000,1.0000,2.0000,12.0000,1.0000,2.0000,3.0000
185.0000,1.1935,541.0000,0.0000,2.0000,12.0000,1.0000,2.0000,3.0000
220.0000,0.7269,904.0000,1.0000,0.0000,12.0000,1.0000,2.0000,3.0000
194.0000,0.5325,633.0000,1.0000,2.0000,12.0000,1.0000,2.0000,3.0000
178.0000,0.4258,1034.0000,1.0000,2.0000,12.0000,1.0000,2.0000,3.0000
164.0000,0.7256,986.0000,0.0000,2.0000,12.0000,1.0000,2.0000,3.0000
173.0000,1.4422,615.0000,1.0000,2.0000,12.0000,1.0000,2.0000,3.0000
191.0000,0.9898,776.0000,1.0000,2.0000,12.0000,1.0000,2.0000,3.0000
199.0000,1.3386,865.0000,1.0000,1.0000,12.0000,1.0000,2.0000,3.0000
179.0000,0.9094,681.0000,0.0000,2.0000,12.0000,1.0000,2.0000,3.0000
262.0000,1.5197,867.0000,1.0000,0.0000,12.0000,1.0000,2.0000,3.0000
189.0000,1.1859,678.0000,1.0000,1.0000,12.0000,1.0000,2.0000,3.0000
