# Single-trial N200 latencies, N200 amplitudes, RT, Accuracy, SNR condition, EEG Session Counter, Experiment, Session, Spatial Frequency, True Subject Index
274.0000,1.2612,1022.0000,1.0000,0.0000,0.0000,1.0000,1.0000,2.4599,1.0000
220.0000,1.1649,1013.0000,1.0000,0.0000,0.0000,1.0000,1.0000,2.3844,1.0000
156.0000,1.0073,639.0000,0.0000,2.0000,0.0000,1.0000,1.0000,2.4544,1.0000
180.0000,1.5420,720.0000,0.0000,0.0000,0.0000,1.0000,1.0000,2.5926,1.0000
170.0000,1.0598,674.0000,1.0000,2.0000,0.0000,1.0000,1.0000,2.7448,1.0000
224.0000,1.0385,1265.0000,0.0000,1.0000,0.0000,1.0000,1.0000,2.4899,1.0000
187.0000,0.7438,604.0000,1.0000,2.0000,0.0000,1.0000,1.0000,2.5663,1.0000
274.0000,-0.0405,1095.0000,0.0000,2.0000,0.0000,1.0000,1.0000,2.3885,1.0000
174.0000,0.6089,581.0000,1.0000,2.0000,0.0000,1.0000,1.0000,2.5903,1.0000
168.0000,1.4389,1346.0000,1.0000,0.0000,0.0000,1.0000,1.0000,2.4185,1.0000
253.0000,2.2191,994.0000,1.0000,0.0000,0.0000,1.0000,1.0000,2.4380,1.0000
250.0000,0.8072,1006.0000,0.0000,2.0000,0.0000,1.0000,1.0000,2.4870,1.0000
172.0000,0.5250,898.0000,1.0000,2.0000,0.0000,1.0000,1.0000,2.6248,1.0000
183.0000,1.2760,660.0000,0.0000,1.0000,0.0000,1.0000,1.0000,2.4252,1.0000
191.0000,2.2372,835.0000,0.0000,0.0000,0.0000,1.0000,1.0000,2.6457,1.0000
211.0000,2.4876,1160.0000,1.0000,0.0000,0.0000,1.0000,1.0000,2.4363,1.0000
155.0000,1.6052,491.0000,1.0000,2.0000,0.0000,1.0000,1.0000,2.5146,1.0000
210.0000,1.6156,726.0000,1.0000,0.0000,0.0000,1.0000,1.0000,2.4519,1.0000
228.0000,0.5069,438.0000,1.0000,2.0000,0.0000,1.0000,1.0000,2.5868,1.0000
250.0000,0.3249,726.0000,0.0000,0.0000,0.0000,1.0000,1.0000,2.5640,1.0000
199.0000,0.2668,920.0000,1.0000,1.0000,0.0000,1.0000,1.0000,2.4208,1.0000
225.0000,0.6677,608.0000,1.0000,1.0000,0.0000,1.0000,1.0000,2.6566,1.0000
232.0000,0.2801,1102.0000,0.0000,1.0000,0.0000,1.0000,1.0000,2.5126,1.0000
152.0000,0.7271,675.0000,0.0000,2.0000,0.0000,1.0000,1.0000,2.3709,1.0000
274.0000,0.2111,1176.0000,1.0000,0.0000,0.0000,1.0000,1.0000,2.7047,1.0000
237.0000,2.1507,755.0000,0.0000,1.0000,0.0000,1.0000,1.0000,2.4072,1.0000
198.0000,3.4475,958.0000,0.0000,0.0000,0.0000,1.0000,1.0000,2.5464,1.0000
193.0000,0.3644,814.0000,1.0000,2.0000,0.0000,1.0000,1.0000,2.4086,1.0000
274.0000,-0.1104,719.0000,1.0000,0.0000,0.0000,1.0000,1.0000,2.4098,1.0000
167.0000,1.7038,775.0000,0.0000,2.0000,0.0000,1.0000,1.0000,2.3422,1.0000
207.0000,0.9445,556.0000,0.0000,1.0000,0.0000,1.0000,1.0000,2.4842,1.0000
204.0000,1.8561,614.0000,1.0000,1.0000,0.0000,1.0000,1.0000,2.5837,1.0000
195.0000,1.7274,769.0000,1.0000,1.0000,0.0000,1.0000,1.0000,2.5222,1.0000
211.0000,1.3285,730.0000,1.0000,1.0000,0.0000,1.0000,1.0000,2.5873,1.0000
185.0000,0.8495,530.0000,1.0000,2.0000,0.0000,1.0000,1.0000,2.6738,1.0000
164.0000,0.2619,916.0000,1.0000,2.0000,0.0000,1.0000,1.0000,2.2856,1.0000
172.0000,1.6604,620.0000,1.0000,2.0000,0.0000,1.0000,1.0000,2.2438,1.0000
190.0000,1.2224,1063.0000,1.0000,1.0000,0.0000,1.0000,1.0000,2.3414,1.0000
187.0000,0.9902,619.0000,1.0000,0.0000,0.0000,1.0000,1.0000,2.4926,1.0000
170.0000,0.9451,709.0000,0.0000,2.0000,0.0000,1.0000,1.0000,2.3533,1.0000
184.0000,1.3474,583.0000,1.0000,2.0000,0.0000,1.0000,1.0000,2.6326,1.0000
195.0000,1.1663,576.0000,1.0000,1.0000,0.0000,1.0000,1.0000,2.5857,1.0000
168.0000,1.1637,643.0000,1.0000,1.0000,0.0000,1.0000,1.0000,2.6102,1.0000
166.0000,1.4622,945.0000,1.0000,2.0000,0.0000,1.0000,1.0000,2.5385,1.0000
206.0000,0.6286,897.0000,1.0000,1.0000,0.0000,1.0000,1.0000,2.5756,1.0000
214.0000,1.8675,1244.0000,0.0000,1.0000,0.0000,1.0000,1.0000,2.5245,1.0000
165.0000,2.3027,799.0000,1.0000,1.0000,0.0000,1.0000,1.0000,2.5612,1.0000
197.0000,1.7748,887.0000,1.0000,1.0000,0.0000,1.0000,1.0000,2.2362,1.0000
181.0000,1.0162,615.0000,1.0000,2.0000,0.0000,1.0000,1.0000,2.6123,1.0000
150.0000,-0.5206,1238.0000,0.0000,0.0000,0.0000,1.0000,1.0000,2.5574,1.0000
274.0000,1.0762,985.0000,0.0000,0.0000,0.0000,1.0000,1.0000,2.5994,1.0000
238.0000,4.7835,925.0000,0.0000,0.0000,0.0000,1.0000,1.0000,2.6444,1.0000
177.0000,1.4736,966.0000,0.0000,1.0000,0.0000,1.0000,1.0000,2.3675,1.0000
205.0000,0.5748,869.0000,1.0000,1.0000,0.0000,1.0000,1.0000,2.6299,1.0000
171.0000,1.4464,1125.0000,0.0000,2.0000,0.0000,1.0000,1.0000,2.4630,1.0000
173.0000,1.1153,594.0000,1.0000,2.0000,0.0000,1.0000,1.0000,2.5798,1.0000
233.0000,1.8466,1339.0000,0.0000,0.0000,0.0000,1.0000,1.0000,2.6311,1.0000
229.0000,1.5134,1057.0000,0.0000,1.0000,0.0000,1.0000,1.0000,2.5863,1.0000
221.0000,-0.0051,899.0000,0.0000,0.0000,0.0000,1.0000,1.0000,2.6898,1.0000
190.0000,1.1522,950.0000,0.0000,1.0000,0.0000,1.0000,1.0000,2.4926,1.0000
244.0000,1.6086,1295.0000,0.0000,0.0000,0.0000,1.0000,1.0000,2.5802,1.0000
150.0000,-0.8918,1220.0000,0.0000,0.0000,0.0000,1.0000,1.0000,2.4171,1.0000
165.0000,2.2551,626.0000,1.0000,2.0000,0.0000,1.0000,1.0000,2.6672,1.0000
210.0000,1.3760,563.0000,1.0000,1.0000,0.0000,1.0000,1.0000,2.5183,1.0000
206.0000,0.7370,627.0000,1.0000,2.0000,0.0000,1.0000,1.0000,2.6431,1.0000
165.0000,1.0382,1193.0000,1.0000,2.0000,0.0000,1.0000,1.0000,2.2985,1.0000
192.0000,1.0622,1121.0000,1.0000,1.0000,0.0000,1.0000,1.0000,2.3718,1.0000
232.0000,1.3816,1539.0000,0.0000,1.0000,0.0000,1.0000,1.0000,2.3565,1.0000
270.0000,0.8515,1355.0000,1.0000,0.0000,0.0000,1.0000,1.0000,2.5623,1.0000
170.0000,1.4534,603.0000,1.0000,2.0000,0.0000,1.0000,1.0000,2.6684,1.0000
176.0000,1.8678,1328.0000,0.0000,2.0000,0.0000,1.0000,1.0000,2.2549,1.0000
229.0000,2.7721,828.0000,1.0000,0.0000,0.0000,1.0000,1.0000,2.3284,1.0000
179.0000,0.7784,628.0000,0.0000,2.0000,0.0000,1.0000,1.0000,2.4722,1.0000
271.0000,0.1951,1463.0000,1.0000,0.0000,0.0000,1.0000,1.0000,2.5420,1.0000
225.0000,1.7128,604.0000,1.0000,1.0000,0.0000,1.0000,1.0000,2.5283,1.0000
274.0000,0.8686,896.0000,1.0000,0.0000,0.0000,1.0000,1.0000,2.4443,1.0000
167.0000,1.5109,532.0000,1.0000,2.0000,0.0000,1.0000,1.0000,2.7599,1.0000
158.0000,1.1486,479.0000,1.0000,2.0000,0.0000,1.0000,1.0000,2.5249,1.0000
207.0000,0.5717,713.0000,1.0000,1.0000,0.0000,1.0000,1.0000,2.5478,1.0000
206.0000,1.7331,665.0000,1.0000,1.0000,0.0000,1.0000,1.0000,2.8302,1.0000
203.0000,1.4644,533.0000,0.0000,1.0000,0.0000,1.0000,1.0000,2.4782,1.0000
178.0000,1.1201,699.0000,1.0000,2.0000,0.0000,1.0000,1.0000,2.4254,1.0000
260.0000,1.2188,738.0000,0.0000,0.0000,0.0000,1.0000,1.0000,2.7581,1.0000
174.0000,1.1853,566.0000,1.0000,2.0000,0.0000,1.0000,1.0000,2.5873,1.0000
166.0000,0.7468,519.0000,1.0000,2.0000,0.0000,1.0000,1.0000,2.5427,1.0000
274.0000,0.9382,685.0000,0.0000,0.0000,0.0000,1.0000,1.0000,2.5214,1.0000
189.0000,2.1668,473.0000,1.0000,1.0000,0.0000,1.0000,1.0000,2.5435,1.0000
190.0000,0.3059,530.0000,1.0000,1.0000,0.0000,1.0000,1.0000,2.6042,1.0000
167.0000,0.5529,359.0000,1.0000,2.0000,0.0000,1.0000,1.0000,2.6862,1.0000
263.0000,1.7188,617.0000,1.0000,0.0000,0.0000,1.0000,1.0000,2.4158,1.0000
211.0000,3.1810,590.0000,1.0000,0.0000,0.0000,1.0000,1.0000,2.6212,1.0000
163.0000,0.6012,488.0000,1.0000,2.0000,0.0000,1.0000,1.0000,2.5710,1.0000
222.0000,0.4391,733.0000,1.0000,1.0000,0.0000,1.0000,1.0000,2.4015,1.0000
182.0000,0.8152,665.0000,1.0000,2.0000,0.0000,1.0000,1.0000,2.6361,1.0000
165.0000,0.7532,551.0000,1.0000,2.0000,0.0000,1.0000,1.0000,2.6191,1.0000
186.0000,1.5911,702.0000,0.0000,2.0000,0.0000,1.0000,1.0000,2.5699,1.0000
235.0000,-0.6931,1140.0000,0.0000,0.0000,0.0000,1.0000,1.0000,2.3987,1.0000
204.0000,0.9006,715.0000,1.0000,1.0000,0.0000,1.0000,1.0000,2.5338,1.0000
221.0000,1.6593,1397.0000,1.0000,1.0000,0.0000,1.0000,1.0000,2.5375,1.0000
248.0000,1.1852,804.0000,0.0000,1.0000,0.0000,1.0000,1.0000,2.4321,1.0000
237.0000,4.3739,535.0000,1.0000,0.0000,0.0000,1.0000,1.0000,2.6170,1.0000
185.0000,0.8098,839.0000,0.0000,1.0000,0.0000,1.0000,1.0000,2.4229,1.0000
196.0000,1.2339,729.0000,0.0000,2.0000,0.0000,1.0000,1.0000,2.4462,1.0000
166.0000,1.1884,359.0000,1.0000,2.0000,0.0000,1.0000,1.0000,2.6992,1.0000
166.0000,1.4076,772.0000,0.0000,2.0000,0.0000,1.0000,1.0000,2.3890,1.0000
274.0000,1.8012,940.0000,0.0000,0.0000,0.0000,1.0000,1.0000,2.5893,1.0000
247.0000,3.5714,592.0000,1.0000,0.0000,0.0000,1.0000,1.0000,2.4721,1.0000
261.0000,1.6222,676.0000,0.0000,0.0000,0.0000,1.0000,1.0000,2.5254,1.0000
186.0000,1.4561,574.0000,1.0000,2.0000,0.0000,1.0000,1.0000,2.5406,1.0000
212.0000,1.2305,576.0000,1.0000,1.0000,0.0000,1.0000,1.0000,2.5618,1.0000
256.0000,3.1567,1073.0000,0.0000,0.0000,0.0000,1.0000,1.0000,2.4686,1.0000
194.0000,0.6229,908.0000,1.0000,1.0000,0.0000,1.0000,1.0000,2.3871,1.0000
259.0000,1.2395,573.0000,1.0000,0.0000,0.0000,1.0000,1.0000,2.2991,1.0000
150.0000,1.7037,1264.0000,1.0000,2.0000,0.0000,1.0000,1.0000,2.3405,1.0000
150.0000,0.9440,599.0000,1.0000,2.0000,0.0000,1.0000,1.0000,2.3492,1.0000
260.0000,1.7442,481.0000,1.0000,1.0000,0.0000,1.0000,1.0000,2.6277,1.0000
185.0000,1.6112,597.0000,1.0000,1.0000,0.0000,1.0000,1.0000,2.6793,1.0000
183.0000,0.9477,672.0000,1.0000,2.0000,0.0000,1.0000,1.0000,2.6572,1.0000
237.0000,1.4088,949.0000,1.0000,0.0000,0.0000,1.0000,1.0000,2.4512,1.0000
208.0000,1.5266,763.0000,1.0000,1.0000,0.0000,1.0000,1.0000,2.2614,1.0000
231.0000,1.1186,1016.0000,1.0000,0.0000,0.0000,1.0000,1.0000,2.8376,1.0000
183.0000,0.1298,1142.0000,1.0000,1.0000,0.0000,1.0000,1.0000,2.3771,1.0000
198.0000,1.3491,557.0000,1.0000,1.0000,0.0000,1.0000,1.0000,2.7019,1.0000
274.0000,0.5864,800.0000,0.0000,0.0000,0.0000,1.0000,1.0000,2.6447,1.0000
193.0000,0.8523,740.0000,0.0000,1.0000,0.0000,1.0000,1.0000,2.4894,1.0000
214.0000,1.4824,814.0000,1.0000,1.0000,0.0000,1.0000,1.0000,2.4232,1.0000
229.0000,0.9032,1013.0000,0.0000,0.0000,0.0000,1.0000,1.0000,2.4760,1.0000
219.0000,0.4915,1094.0000,0.0000,0.0000,0.0000,1.0000,1.0000,2.4032,1.0000
247.0000,3.2690,1194.0000,0.0000,0.0000,0.0000,1.0000,1.0000,2.5872,1.0000
163.0000,0.2735,1083.0000,1.0000,2.0000,0.0000,1.0000,1.0000,2.2473,1.0000
272.0000,1.7790,891.0000,1.0000,0.0000,0.0000,1.0000,1.0000,2.4893,1.0000
172.0000,0.5194,798.0000,1.0000,1.0000,0.0000,1.0000,1.0000,2.4678,1.0000
220.0000,2.9047,678.0000,1.0000,0.0000,0.0000,1.0000,1.0000,2.4528,1.0000
202.0000,0.7103,747.0000,1.0000,1.0000,0.0000,1.0000,1.0000,2.2830,1.0000
234.0000,0.9415,642.0000,1.0000,1.0000,0.0000,1.0000,1.0000,2.5557,1.0000
212.0000,1.0849,572.0000,1.0000,1.0000,0.0000,1.0000,1.0000,2.5216,1.0000
204.0000,2.3252,981.0000,1.0000,0.0000,0.0000,1.0000,1.0000,2.6192,1.0000
226.0000,1.6309,788.0000,1.0000,0.0000,0.0000,1.0000,1.0000,2.6390,1.0000
167.0000,0.8056,645.0000,1.0000,2.0000,0.0000,1.0000,1.0000,2.4313,1.0000
183.0000,1.4084,493.0000,1.0000,2.0000,0.0000,1.0000,1.0000,2.5088,1.0000
165.0000,1.3045,921.0000,0.0000,2.0000,0.0000,1.0000,1.0000,2.4026,1.0000
238.0000,0.1394,671.0000,1.0000,0.0000,0.0000,1.0000,1.0000,2.3511,1.0000
200.0000,1.5984,683.0000,1.0000,1.0000,0.0000,1.0000,1.0000,2.6198,1.0000
170.0000,1.0392,1433.0000,0.0000,2.0000,0.0000,1.0000,1.0000,2.5543,1.0000
165.0000,1.0447,962.0000,1.0000,2.0000,0.0000,1.0000,1.0000,2.3948,1.0000
194.0000,1.2545,934.0000,1.0000,2.0000,0.0000,1.0000,1.0000,2.3670,1.0000
254.0000,0.5045,609.0000,0.0000,0.0000,0.0000,1.0000,1.0000,2.5122,1.0000
182.0000,2.6097,628.0000,0.0000,0.0000,0.0000,1.0000,1.0000,2.5723,1.0000
274.0000,0.9140,1095.0000,1.0000,0.0000,0.0000,1.0000,1.0000,2.3972,1.0000
170.0000,1.3861,952.0000,1.0000,2.0000,0.0000,1.0000,1.0000,2.4870,1.0000
260.0000,1.3893,850.0000,0.0000,0.0000,0.0000,1.0000,1.0000,2.4297,1.0000
174.0000,1.1771,1631.0000,0.0000,2.0000,0.0000,1.0000,1.0000,2.3481,1.0000
266.0000,1.4970,1238.0000,0.0000,0.0000,0.0000,1.0000,1.0000,2.6074,1.0000
196.0000,1.0672,560.0000,1.0000,1.0000,0.0000,1.0000,1.0000,2.5523,1.0000
158.0000,1.3555,507.0000,1.0000,2.0000,0.0000,1.0000,1.0000,2.6922,1.0000
165.0000,1.6469,1088.0000,1.0000,1.0000,1.0000,1.0000,2.0000,2.6913,1.0000
176.0000,0.6860,584.0000,1.0000,2.0000,1.0000,1.0000,2.0000,2.4563,1.0000
179.0000,0.8229,851.0000,0.0000,2.0000,1.0000,1.0000,2.0000,2.4436,1.0000
274.0000,2.4085,1394.0000,1.0000,0.0000,1.0000,1.0000,2.0000,2.4623,1.0000
168.0000,0.9542,925.0000,1.0000,1.0000,1.0000,1.0000,2.0000,2.3990,1.0000
274.0000,1.4434,1183.0000,1.0000,0.0000,1.0000,1.0000,2.0000,2.3811,1.0000
173.0000,1.3905,870.0000,1.0000,1.0000,1.0000,1.0000,2.0000,2.5387,1.0000
181.0000,0.8553,674.0000,0.0000,1.0000,1.0000,1.0000,2.0000,2.4722,1.0000
255.0000,1.9041,543.0000,0.0000,0.0000,1.0000,1.0000,2.0000,2.4093,1.0000
262.0000,1.2276,706.0000,1.0000,0.0000,1.0000,1.0000,2.0000,2.3364,1.0000
188.0000,1.4113,503.0000,1.0000,1.0000,1.0000,1.0000,2.0000,2.5822,1.0000
155.0000,0.1326,551.0000,0.0000,0.0000,1.0000,1.0000,2.0000,2.5591,1.0000
179.0000,0.0426,456.0000,0.0000,2.0000,1.0000,1.0000,2.0000,2.3689,1.0000
274.0000,2.5176,625.0000,1.0000,0.0000,1.0000,1.0000,2.0000,2.3505,1.0000
200.0000,1.3583,557.0000,1.0000,0.0000,1.0000,1.0000,2.0000,2.3548,1.0000
174.0000,0.2722,746.0000,1.0000,2.0000,1.0000,1.0000,2.0000,2.4443,1.0000
197.0000,0.2179,839.0000,1.0000,0.0000,1.0000,1.0000,2.0000,2.6756,1.0000
184.0000,1.3999,472.0000,0.0000,1.0000,1.0000,1.0000,2.0000,2.4627,1.0000
162.0000,1.3705,877.0000,0.0000,2.0000,1.0000,1.0000,2.0000,2.5844,1.0000
207.0000,0.5143,760.0000,0.0000,0.0000,1.0000,1.0000,2.0000,2.6199,1.0000
170.0000,0.7067,799.0000,1.0000,1.0000,1.0000,1.0000,2.0000,2.6018,1.0000
241.0000,1.6678,796.0000,1.0000,0.0000,1.0000,1.0000,2.0000,2.4681,1.0000
150.0000,0.2454,1392.0000,0.0000,2.0000,1.0000,1.0000,2.0000,2.3840,1.0000
181.0000,1.1985,740.0000,1.0000,2.0000,1.0000,1.0000,2.0000,2.5498,1.0000
174.0000,0.7630,1157.0000,1.0000,2.0000,1.0000,1.0000,2.0000,2.4315,1.0000
171.0000,0.8915,551.0000,0.0000,2.0000,1.0000,1.0000,2.0000,2.4312,1.0000
171.0000,1.5406,482.0000,1.0000,1.0000,1.0000,1.0000,2.0000,2.5824,1.0000
235.0000,1.9379,720.0000,0.0000,0.0000,1.0000,1.0000,2.0000,2.7447,1.0000
204.0000,0.4947,485.0000,1.0000,1.0000,1.0000,1.0000,2.0000,2.5864,1.0000
157.0000,1.2462,335.0000,1.0000,2.0000,1.0000,1.0000,2.0000,2.5658,1.0000
212.0000,1.1289,722.0000,1.0000,1.0000,1.0000,1.0000,2.0000,2.3832,1.0000
174.0000,1.7296,481.0000,1.0000,2.0000,1.0000,1.0000,2.0000,2.5507,1.0000
207.0000,1.9549,578.0000,1.0000,1.0000,1.0000,1.0000,2.0000,2.7307,1.0000
193.0000,0.8418,444.0000,0.0000,2.0000,1.0000,1.0000,2.0000,2.4790,1.0000
202.0000,1.1462,656.0000,1.0000,0.0000,1.0000,1.0000,2.0000,2.4785,1.0000
274.0000,0.4107,864.0000,1.0000,2.0000,1.0000,1.0000,2.0000,2.4484,1.0000
191.0000,0.8269,749.0000,1.0000,0.0000,1.0000,1.0000,2.0000,2.2066,1.0000
165.0000,1.6841,803.0000,1.0000,2.0000,1.0000,1.0000,2.0000,2.6092,1.0000
213.0000,0.1167,964.0000,1.0000,1.0000,1.0000,1.0000,2.0000,2.5957,1.0000
259.0000,1.9641,599.0000,0.0000,0.0000,1.0000,1.0000,2.0000,2.5374,1.0000
150.0000,0.8462,795.0000,1.0000,0.0000,1.0000,1.0000,2.0000,2.2595,1.0000
174.0000,1.1400,552.0000,1.0000,2.0000,1.0000,1.0000,2.0000,2.5789,1.0000
250.0000,-0.3203,607.0000,0.0000,0.0000,1.0000,1.0000,2.0000,2.5609,1.0000
192.0000,1.0543,893.0000,1.0000,1.0000,1.0000,1.0000,2.0000,2.6856,1.0000
244.0000,-0.0185,1052.0000,1.0000,0.0000,1.0000,1.0000,2.0000,2.6210,1.0000
178.0000,0.9379,382.0000,1.0000,2.0000,1.0000,1.0000,2.0000,2.5174,1.0000
175.0000,1.8177,1140.0000,1.0000,1.0000,1.0000,1.0000,2.0000,2.5490,1.0000
169.0000,1.1896,1151.0000,0.0000,2.0000,1.0000,1.0000,2.0000,2.5546,1.0000
230.0000,2.7058,977.0000,1.0000,0.0000,1.0000,1.0000,2.0000,2.5217,1.0000
171.0000,1.0135,424.0000,1.0000,2.0000,1.0000,1.0000,2.0000,2.5364,1.0000
205.0000,1.4469,478.0000,1.0000,1.0000,1.0000,1.0000,2.0000,2.5334,1.0000
274.0000,0.2187,405.0000,1.0000,1.0000,1.0000,1.0000,2.0000,2.5721,1.0000
274.0000,1.9715,833.0000,1.0000,0.0000,1.0000,1.0000,2.0000,2.3872,1.0000
256.0000,0.8570,596.0000,1.0000,1.0000,1.0000,1.0000,2.0000,2.6486,1.0000
232.0000,0.4376,1078.0000,1.0000,0.0000,1.0000,1.0000,2.0000,2.3431,1.0000
173.0000,0.7390,399.0000,1.0000,2.0000,1.0000,1.0000,2.0000,2.5430,1.0000
170.0000,1.4373,726.0000,1.0000,2.0000,1.0000,1.0000,2.0000,2.5486,1.0000
171.0000,1.3679,1143.0000,0.0000,1.0000,1.0000,1.0000,2.0000,2.4555,1.0000
166.0000,0.6572,673.0000,0.0000,2.0000,1.0000,1.0000,2.0000,2.6554,1.0000
258.0000,1.6327,922.0000,1.0000,0.0000,1.0000,1.0000,2.0000,2.5254,1.0000
167.0000,0.3250,589.0000,1.0000,2.0000,1.0000,1.0000,2.0000,2.6067,1.0000
235.0000,1.1183,784.0000,0.0000,1.0000,1.0000,1.0000,2.0000,2.4709,1.0000
227.0000,-0.2243,862.0000,1.0000,1.0000,1.0000,1.0000,2.0000,2.4833,1.0000
274.0000,2.2800,809.0000,1.0000,0.0000,1.0000,1.0000,2.0000,2.5392,1.0000
180.0000,0.9797,555.0000,1.0000,1.0000,1.0000,1.0000,2.0000,2.5645,1.0000
241.0000,0.0046,1033.0000,1.0000,0.0000,1.0000,1.0000,2.0000,2.6261,1.0000
172.0000,0.8039,713.0000,1.0000,1.0000,1.0000,1.0000,2.0000,2.2215,1.0000
274.0000,2.6391,938.0000,1.0000,0.0000,1.0000,1.0000,2.0000,2.5665,1.0000
274.0000,2.0834,867.0000,1.0000,0.0000,1.0000,1.0000,2.0000,2.4745,1.0000
237.0000,3.0963,689.0000,0.0000,0.0000,1.0000,1.0000,2.0000,2.5506,1.0000
206.0000,2.0051,944.0000,0.0000,1.0000,1.0000,1.0000,2.0000,2.4233,1.0000
183.0000,2.2233,433.0000,1.0000,1.0000,1.0000,1.0000,2.0000,2.4217,1.0000
217.0000,2.0038,688.0000,1.0000,0.0000,1.0000,1.0000,2.0000,2.2635,1.0000
171.0000,2.0419,619.0000,1.0000,1.0000,1.0000,1.0000,2.0000,2.6055,1.0000
208.0000,0.3525,680.0000,1.0000,0.0000,1.0000,1.0000,2.0000,2.3647,1.0000
154.0000,0.2672,615.0000,0.0000,2.0000,1.0000,1.0000,2.0000,2.4687,1.0000
180.0000,0.5768,670.0000,0.0000,2.0000,1.0000,1.0000,2.0000,2.6275,1.0000
157.0000,1.8770,561.0000,0.0000,2.0000,1.0000,1.0000,2.0000,2.4280,1.0000
198.0000,0.7400,734.0000,1.0000,1.0000,1.0000,1.0000,2.0000,2.4684,1.0000
194.0000,1.4445,611.0000,0.0000,1.0000,1.0000,1.0000,2.0000,2.4172,1.0000
220.0000,1.5298,966.0000,0.0000,0.0000,1.0000,1.0000,2.0000,2.4833,1.0000
165.0000,1.2953,819.0000,1.0000,2.0000,1.0000,1.0000,2.0000,2.5195,1.0000
229.0000,1.3411,785.0000,0.0000,0.0000,1.0000,1.0000,2.0000,2.6403,1.0000
177.0000,1.0966,858.0000,1.0000,2.0000,1.0000,1.0000,2.0000,2.4648,1.0000
251.0000,2.3294,977.0000,0.0000,0.0000,1.0000,1.0000,2.0000,2.5365,1.0000
180.0000,1.9711,1137.0000,1.0000,2.0000,1.0000,1.0000,2.0000,2.5479,1.0000
194.0000,0.9332,687.0000,1.0000,1.0000,1.0000,1.0000,2.0000,2.4860,1.0000
160.0000,1.1494,762.0000,0.0000,2.0000,1.0000,1.0000,2.0000,2.4556,1.0000
167.0000,1.4593,745.0000,1.0000,2.0000,1.0000,1.0000,2.0000,2.4180,1.0000
232.0000,1.8193,741.0000,0.0000,0.0000,1.0000,1.0000,2.0000,2.4141,1.0000
274.0000,3.6785,710.0000,0.0000,0.0000,1.0000,1.0000,2.0000,2.4848,1.0000
177.0000,1.1387,659.0000,1.0000,1.0000,1.0000,1.0000,2.0000,2.5796,1.0000
207.0000,1.6777,945.0000,0.0000,1.0000,1.0000,1.0000,2.0000,2.4482,1.0000
175.0000,1.8826,766.0000,1.0000,0.0000,1.0000,1.0000,2.0000,2.4030,1.0000
172.0000,1.1633,834.0000,0.0000,2.0000,1.0000,1.0000,2.0000,2.5950,1.0000
215.0000,0.9536,1045.0000,1.0000,0.0000,1.0000,1.0000,2.0000,2.3442,1.0000
165.0000,1.3436,516.0000,1.0000,2.0000,1.0000,1.0000,2.0000,2.3545,1.0000
249.0000,1.0516,598.0000,1.0000,0.0000,1.0000,1.0000,2.0000,2.4300,1.0000
240.0000,0.6007,676.0000,0.0000,0.0000,1.0000,1.0000,2.0000,2.5405,1.0000
159.0000,2.1299,417.0000,1.0000,2.0000,1.0000,1.0000,2.0000,2.6997,1.0000
171.0000,1.9358,629.0000,1.0000,2.0000,1.0000,1.0000,2.0000,2.3396,1.0000
164.0000,1.4099,668.0000,1.0000,2.0000,1.0000,1.0000,2.0000,2.4472,1.0000
172.0000,1.2499,663.0000,1.0000,1.0000,1.0000,1.0000,2.0000,2.3683,1.0000
165.0000,1.4058,638.0000,0.0000,1.0000,1.0000,1.0000,2.0000,2.4293,1.0000
167.0000,0.6778,779.0000,1.0000,2.0000,1.0000,1.0000,2.0000,2.4704,1.0000
178.0000,2.4205,806.0000,0.0000,1.0000,1.0000,1.0000,2.0000,2.4847,1.0000
274.0000,0.8088,703.0000,1.0000,1.0000,1.0000,1.0000,2.0000,2.4424,1.0000
230.0000,1.3602,645.0000,1.0000,1.0000,1.0000,1.0000,2.0000,2.5938,1.0000
165.0000,1.1149,648.0000,1.0000,2.0000,1.0000,1.0000,2.0000,2.3005,1.0000
274.0000,1.0582,898.0000,0.0000,0.0000,1.0000,1.0000,2.0000,2.7671,1.0000
198.0000,0.5859,801.0000,0.0000,1.0000,1.0000,1.0000,2.0000,2.4470,1.0000
215.0000,1.8553,1234.0000,1.0000,0.0000,1.0000,1.0000,2.0000,2.3900,1.0000
176.0000,1.2003,625.0000,1.0000,1.0000,1.0000,1.0000,2.0000,2.7827,1.0000
274.0000,0.6669,652.0000,1.0000,0.0000,1.0000,1.0000,2.0000,2.4279,1.0000
218.0000,1.1798,601.0000,1.0000,0.0000,1.0000,1.0000,2.0000,2.5771,1.0000
164.0000,0.8537,770.0000,0.0000,2.0000,1.0000,1.0000,2.0000,2.4784,1.0000
214.0000,1.5640,573.0000,1.0000,1.0000,1.0000,1.0000,2.0000,2.7490,1.0000
274.0000,0.9430,519.0000,1.0000,2.0000,1.0000,1.0000,2.0000,2.3984,1.0000
174.0000,1.7888,562.0000,1.0000,2.0000,1.0000,1.0000,2.0000,2.4886,1.0000
232.0000,2.8073,741.0000,1.0000,0.0000,1.0000,1.0000,2.0000,2.5116,1.0000
219.0000,2.1987,623.0000,1.0000,0.0000,1.0000,1.0000,2.0000,2.5619,1.0000
212.0000,1.3753,609.0000,1.0000,1.0000,1.0000,1.0000,2.0000,2.7551,1.0000
150.0000,0.8619,695.0000,1.0000,0.0000,1.0000,1.0000,2.0000,2.6361,1.0000
217.0000,2.0144,992.0000,0.0000,1.0000,1.0000,1.0000,2.0000,2.5424,1.0000
204.0000,1.9137,592.0000,1.0000,1.0000,1.0000,1.0000,2.0000,2.5627,1.0000
171.0000,1.1507,1048.0000,1.0000,2.0000,1.0000,1.0000,2.0000,2.4597,1.0000
197.0000,0.9708,873.0000,0.0000,1.0000,1.0000,1.0000,2.0000,2.5621,1.0000
274.0000,1.2892,789.0000,0.0000,0.0000,1.0000,1.0000,2.0000,2.4146,1.0000
170.0000,1.7409,652.0000,0.0000,2.0000,1.0000,1.0000,2.0000,2.4521,1.0000
180.0000,1.3034,562.0000,1.0000,1.0000,1.0000,1.0000,2.0000,2.5745,1.0000
173.0000,1.4843,516.0000,1.0000,1.0000,1.0000,1.0000,2.0000,2.5127,1.0000
247.0000,1.8122,790.0000,0.0000,0.0000,1.0000,1.0000,2.0000,2.5526,1.0000
179.0000,1.0513,680.0000,1.0000,2.0000,1.0000,1.0000,2.0000,2.4553,1.0000
213.0000,2.9582,517.0000,1.0000,1.0000,1.0000,1.0000,2.0000,2.7527,1.0000
274.0000,0.0842,759.0000,1.0000,0.0000,1.0000,1.0000,2.0000,2.3137,1.0000
154.0000,1.5702,839.0000,0.0000,2.0000,1.0000,1.0000,2.0000,2.4777,1.0000
268.0000,0.6084,908.0000,1.0000,1.0000,1.0000,1.0000,2.0000,2.4477,1.0000
150.0000,1.3576,806.0000,1.0000,0.0000,1.0000,1.0000,2.0000,2.4848,1.0000
272.0000,1.6779,843.0000,1.0000,0.0000,1.0000,1.0000,2.0000,2.7638,1.0000
193.0000,1.4207,702.0000,1.0000,1.0000,1.0000,1.0000,2.0000,2.3034,1.0000
157.0000,2.0474,627.0000,1.0000,2.0000,1.0000,1.0000,2.0000,2.4174,1.0000
179.0000,1.7337,688.0000,1.0000,2.0000,1.0000,1.0000,2.0000,2.4347,1.0000
166.0000,1.0269,617.0000,1.0000,2.0000,1.0000,1.0000,2.0000,2.5609,1.0000
186.0000,1.4443,566.0000,1.0000,1.0000,1.0000,1.0000,2.0000,2.5602,1.0000
223.0000,3.0769,1286.0000,1.0000,0.0000,1.0000,1.0000,2.0000,2.4905,1.0000
166.0000,0.8559,716.0000,1.0000,2.0000,1.0000,1.0000,2.0000,2.4714,1.0000
150.0000,0.1877,841.0000,0.0000,2.0000,1.0000,1.0000,2.0000,2.5332,1.0000
245.0000,1.4060,988.0000,0.0000,0.0000,1.0000,1.0000,2.0000,2.5268,1.0000
159.0000,0.9926,696.0000,1.0000,1.0000,1.0000,1.0000,2.0000,2.3594,1.0000
274.0000,2.4313,625.0000,0.0000,0.0000,1.0000,1.0000,2.0000,2.5799,1.0000
202.0000,1.8872,1015.0000,1.0000,1.0000,1.0000,1.0000,2.0000,2.4905,1.0000
248.0000,1.4807,664.0000,1.0000,1.0000,1.0000,1.0000,2.0000,2.3763,1.0000
222.0000,0.0930,793.0000,1.0000,0.0000,1.0000,1.0000,2.0000,2.4385,1.0000
274.0000,2.1191,928.0000,0.0000,0.0000,1.0000,1.0000,2.0000,2.6838,1.0000
250.0000,3.1740,688.0000,0.0000,0.0000,1.0000,1.0000,2.0000,2.5474,1.0000
180.0000,1.9260,493.0000,1.0000,2.0000,1.0000,1.0000,2.0000,2.5601,1.0000
274.0000,1.2448,2165.0000,1.0000,1.0000,9.0000,1.0000,1.0000,2.4240,2.0000
227.0000,1.6587,937.0000,0.0000,1.0000,9.0000,1.0000,1.0000,2.5357,2.0000
152.0000,1.0170,937.0000,1.0000,2.0000,9.0000,1.0000,1.0000,2.7894,2.0000
237.0000,0.2862,707.0000,1.0000,2.0000,9.0000,1.0000,1.0000,2.4524,2.0000
231.0000,1.0389,642.0000,1.0000,1.0000,9.0000,1.0000,1.0000,2.3999,2.0000
213.0000,2.3133,785.0000,0.0000,1.0000,9.0000,1.0000,1.0000,2.5416,2.0000
274.0000,2.2201,871.0000,0.0000,0.0000,9.0000,1.0000,1.0000,2.3321,2.0000
163.0000,0.6669,1001.0000,0.0000,2.0000,9.0000,1.0000,1.0000,2.4277,2.0000
274.0000,2.4676,1026.0000,0.0000,0.0000,9.0000,1.0000,1.0000,2.5349,2.0000
191.0000,0.6153,946.0000,1.0000,0.0000,9.0000,1.0000,1.0000,2.4605,2.0000
150.0000,3.2913,985.0000,0.0000,0.0000,9.0000,1.0000,1.0000,2.6541,2.0000
157.0000,0.2186,944.0000,1.0000,1.0000,9.0000,1.0000,1.0000,2.5645,2.0000
150.0000,0.3396,667.0000,0.0000,2.0000,9.0000,1.0000,1.0000,2.3448,2.0000
274.0000,-0.4527,880.0000,1.0000,0.0000,9.0000,1.0000,1.0000,2.5728,2.0000
219.0000,2.6135,1674.0000,1.0000,0.0000,9.0000,1.0000,1.0000,2.3498,2.0000
204.0000,-0.4809,608.0000,1.0000,1.0000,9.0000,1.0000,1.0000,2.6057,2.0000
274.0000,2.5011,763.0000,0.0000,0.0000,9.0000,1.0000,1.0000,2.5917,2.0000
231.0000,2.0031,442.0000,0.0000,1.0000,9.0000,1.0000,1.0000,2.4258,2.0000
150.0000,0.0285,742.0000,0.0000,1.0000,9.0000,1.0000,1.0000,2.4387,2.0000
165.0000,2.0400,566.0000,0.0000,2.0000,9.0000,1.0000,1.0000,2.4450,2.0000
274.0000,4.3558,827.0000,1.0000,0.0000,9.0000,1.0000,1.0000,2.5211,2.0000
217.0000,2.5931,778.0000,1.0000,1.0000,9.0000,1.0000,1.0000,2.5656,2.0000
248.0000,1.2012,795.0000,1.0000,0.0000,9.0000,1.0000,1.0000,2.7427,2.0000
211.0000,-1.0948,823.0000,0.0000,0.0000,9.0000,1.0000,1.0000,2.5775,2.0000
153.0000,0.8750,571.0000,1.0000,2.0000,9.0000,1.0000,1.0000,2.5443,2.0000
234.0000,2.0809,676.0000,0.0000,1.0000,9.0000,1.0000,1.0000,2.5123,2.0000
221.0000,0.2891,935.0000,1.0000,1.0000,9.0000,1.0000,1.0000,2.5952,2.0000
274.0000,1.7567,1369.0000,1.0000,0.0000,9.0000,1.0000,1.0000,2.2396,2.0000
178.0000,1.0414,511.0000,1.0000,2.0000,9.0000,1.0000,1.0000,2.6178,2.0000
274.0000,2.8431,608.0000,0.0000,0.0000,9.0000,1.0000,1.0000,2.7049,2.0000
248.0000,0.3154,776.0000,0.0000,1.0000,9.0000,1.0000,1.0000,2.5861,2.0000
150.0000,1.6280,927.0000,0.0000,1.0000,9.0000,1.0000,1.0000,2.6625,2.0000
160.0000,1.0437,621.0000,0.0000,2.0000,9.0000,1.0000,1.0000,2.4637,2.0000
187.0000,2.7765,1230.0000,0.0000,1.0000,9.0000,1.0000,1.0000,2.6009,2.0000
274.0000,2.1241,1048.0000,0.0000,0.0000,9.0000,1.0000,1.0000,2.6674,2.0000
173.0000,1.2266,555.0000,1.0000,2.0000,9.0000,1.0000,1.0000,2.5565,2.0000
169.0000,1.6040,599.0000,0.0000,1.0000,9.0000,1.0000,1.0000,2.5082,2.0000
198.0000,-0.7613,638.0000,0.0000,1.0000,9.0000,1.0000,1.0000,2.5189,2.0000
274.0000,3.2092,643.0000,1.0000,0.0000,9.0000,1.0000,1.0000,2.5396,2.0000
209.0000,-0.0951,1155.0000,1.0000,0.0000,9.0000,1.0000,1.0000,2.2162,2.0000
274.0000,-0.2887,1455.0000,1.0000,0.0000,9.0000,1.0000,1.0000,2.5989,2.0000
150.0000,2.5344,581.0000,0.0000,1.0000,9.0000,1.0000,1.0000,2.5462,2.0000
196.0000,0.3043,920.0000,1.0000,1.0000,9.0000,1.0000,1.0000,2.5544,2.0000
150.0000,1.7306,999.0000,1.0000,0.0000,9.0000,1.0000,1.0000,2.5517,2.0000
150.0000,1.1517,834.0000,0.0000,1.0000,9.0000,1.0000,1.0000,2.5613,2.0000
274.0000,1.6319,737.0000,1.0000,0.0000,9.0000,1.0000,1.0000,2.4004,2.0000
150.0000,1.2551,632.0000,1.0000,2.0000,9.0000,1.0000,1.0000,2.4179,2.0000
203.0000,2.0842,766.0000,1.0000,0.0000,9.0000,1.0000,1.0000,2.4313,2.0000
196.0000,0.3224,859.0000,1.0000,2.0000,9.0000,1.0000,1.0000,2.5732,2.0000
244.0000,1.6167,774.0000,0.0000,1.0000,9.0000,1.0000,1.0000,2.5811,2.0000
274.0000,4.2715,54.0000,0.0000,0.0000,9.0000,1.0000,1.0000,2.5400,2.0000
274.0000,3.0783,804.0000,0.0000,0.0000,9.0000,1.0000,1.0000,2.4424,2.0000
215.0000,1.2578,760.0000,0.0000,1.0000,9.0000,1.0000,1.0000,2.5196,2.0000
150.0000,1.2801,998.0000,0.0000,2.0000,9.0000,1.0000,1.0000,2.4360,2.0000
238.0000,2.8082,695.0000,0.0000,0.0000,9.0000,1.0000,1.0000,2.3767,2.0000
170.0000,1.4615,610.0000,1.0000,2.0000,9.0000,1.0000,1.0000,2.5233,2.0000
159.0000,2.5440,568.0000,1.0000,2.0000,9.0000,1.0000,1.0000,2.6556,2.0000
266.0000,1.0756,992.0000,0.0000,0.0000,9.0000,1.0000,1.0000,2.6167,2.0000
191.0000,-0.1311,886.0000,1.0000,1.0000,9.0000,1.0000,1.0000,2.3569,2.0000
163.0000,1.4729,530.0000,1.0000,2.0000,9.0000,1.0000,1.0000,2.2227,2.0000
164.0000,2.3755,802.0000,0.0000,1.0000,9.0000,1.0000,1.0000,2.4891,2.0000
155.0000,1.7343,607.0000,1.0000,2.0000,9.0000,1.0000,1.0000,2.7002,2.0000
150.0000,0.6308,1088.0000,1.0000,2.0000,9.0000,1.0000,1.0000,2.5817,2.0000
177.0000,1.8848,686.0000,0.0000,0.0000,9.0000,1.0000,1.0000,2.5778,2.0000
217.0000,1.9880,750.0000,1.0000,2.0000,9.0000,1.0000,1.0000,2.6568,2.0000
214.0000,1.2910,818.0000,1.0000,1.0000,9.0000,1.0000,1.0000,2.4991,2.0000
180.0000,4.2183,494.0000,0.0000,0.0000,9.0000,1.0000,1.0000,2.5423,2.0000
194.0000,1.1758,896.0000,1.0000,0.0000,9.0000,1.0000,1.0000,2.6137,2.0000
196.0000,1.4458,644.0000,1.0000,2.0000,9.0000,1.0000,1.0000,2.6476,2.0000
180.0000,3.7452,993.0000,1.0000,0.0000,9.0000,1.0000,1.0000,2.4853,2.0000
157.0000,1.2043,495.0000,1.0000,2.0000,9.0000,1.0000,1.0000,2.6288,2.0000
181.0000,3.2679,1064.0000,1.0000,1.0000,9.0000,1.0000,1.0000,2.3281,2.0000
177.0000,1.7190,709.0000,1.0000,1.0000,9.0000,1.0000,1.0000,2.5884,2.0000
224.0000,1.4727,817.0000,1.0000,0.0000,9.0000,1.0000,1.0000,2.3722,2.0000
263.0000,5.6609,653.0000,0.0000,0.0000,9.0000,1.0000,1.0000,2.6090,2.0000
224.0000,1.3473,940.0000,1.0000,1.0000,9.0000,1.0000,1.0000,2.3376,2.0000
274.0000,0.5591,768.0000,1.0000,2.0000,9.0000,1.0000,1.0000,2.3840,2.0000
256.0000,0.8602,948.0000,0.0000,2.0000,9.0000,1.0000,1.0000,2.4014,2.0000
253.0000,4.1253,1085.0000,0.0000,0.0000,9.0000,1.0000,1.0000,2.5630,2.0000
155.0000,0.5863,720.0000,0.0000,2.0000,9.0000,1.0000,1.0000,2.4850,2.0000
251.0000,1.1125,886.0000,0.0000,2.0000,9.0000,1.0000,1.0000,2.5501,2.0000
230.0000,0.7789,712.0000,1.0000,1.0000,9.0000,1.0000,1.0000,2.4326,2.0000
156.0000,0.8873,483.0000,1.0000,2.0000,9.0000,1.0000,1.0000,2.7463,2.0000
274.0000,1.9207,594.0000,1.0000,0.0000,9.0000,1.0000,1.0000,2.3912,2.0000
150.0000,-0.0000,2188.0000,0.0000,2.0000,9.0000,1.0000,1.0000,2.6974,2.0000
247.0000,3.2731,458.0000,1.0000,0.0000,9.0000,1.0000,1.0000,2.4079,2.0000
237.0000,2.1793,575.0000,0.0000,0.0000,9.0000,1.0000,1.0000,2.5380,2.0000
223.0000,1.5558,874.0000,0.0000,0.0000,9.0000,1.0000,1.0000,2.5498,2.0000
218.0000,2.0688,701.0000,1.0000,1.0000,9.0000,1.0000,1.0000,2.3609,2.0000
243.0000,-1.0148,654.0000,0.0000,0.0000,9.0000,1.0000,1.0000,2.6023,2.0000
187.0000,0.4897,684.0000,0.0000,1.0000,9.0000,1.0000,1.0000,2.5082,2.0000
168.0000,0.2982,698.0000,1.0000,2.0000,9.0000,1.0000,1.0000,2.5779,2.0000
227.0000,1.6263,1037.0000,0.0000,0.0000,9.0000,1.0000,1.0000,2.3409,2.0000
222.0000,2.6759,634.0000,1.0000,1.0000,9.0000,1.0000,1.0000,2.3629,2.0000
235.0000,-0.4320,614.0000,0.0000,1.0000,9.0000,1.0000,1.0000,2.5552,2.0000
274.0000,2.7859,543.0000,1.0000,0.0000,9.0000,1.0000,1.0000,2.3815,2.0000
153.0000,1.2002,671.0000,1.0000,1.0000,9.0000,1.0000,1.0000,2.6341,2.0000
166.0000,1.2236,693.0000,1.0000,2.0000,9.0000,1.0000,1.0000,2.4391,2.0000
201.0000,0.7109,551.0000,1.0000,0.0000,9.0000,1.0000,1.0000,2.4668,2.0000
234.0000,3.5615,753.0000,1.0000,0.0000,9.0000,1.0000,1.0000,2.4416,2.0000
161.0000,0.5639,632.0000,1.0000,2.0000,9.0000,1.0000,1.0000,2.7977,2.0000
267.0000,1.4853,762.0000,1.0000,0.0000,9.0000,1.0000,1.0000,2.2467,2.0000
162.0000,2.8965,530.0000,1.0000,2.0000,9.0000,1.0000,1.0000,2.2983,2.0000
167.0000,1.1945,550.0000,1.0000,2.0000,9.0000,1.0000,1.0000,2.7230,2.0000
150.0000,0.3849,887.0000,1.0000,1.0000,9.0000,1.0000,1.0000,2.6066,2.0000
150.0000,1.2966,735.0000,1.0000,2.0000,9.0000,1.0000,1.0000,2.5088,2.0000
161.0000,0.6835,801.0000,1.0000,2.0000,9.0000,1.0000,1.0000,2.3507,2.0000
150.0000,1.4527,676.0000,0.0000,2.0000,9.0000,1.0000,1.0000,2.4039,2.0000
255.0000,1.0127,989.0000,0.0000,0.0000,9.0000,1.0000,1.0000,2.5916,2.0000
183.0000,1.3215,577.0000,1.0000,1.0000,9.0000,1.0000,1.0000,2.6935,2.0000
189.0000,0.4250,1036.0000,0.0000,1.0000,9.0000,1.0000,1.0000,2.4936,2.0000
200.0000,1.5579,587.0000,0.0000,0.0000,9.0000,1.0000,1.0000,2.5182,2.0000
274.0000,1.2279,1297.0000,0.0000,0.0000,9.0000,1.0000,1.0000,2.5161,2.0000
156.0000,1.3646,817.0000,0.0000,2.0000,9.0000,1.0000,1.0000,2.8126,2.0000
248.0000,-0.3470,676.0000,1.0000,0.0000,9.0000,1.0000,1.0000,2.3524,2.0000
254.0000,2.0997,970.0000,1.0000,0.0000,9.0000,1.0000,1.0000,2.4780,2.0000
201.0000,1.6196,365.0000,1.0000,1.0000,9.0000,1.0000,1.0000,2.6747,2.0000
150.0000,1.2270,684.0000,1.0000,0.0000,9.0000,1.0000,1.0000,2.3880,2.0000
224.0000,1.7738,507.0000,0.0000,2.0000,9.0000,1.0000,1.0000,2.4052,2.0000
150.0000,1.5113,1008.0000,1.0000,2.0000,9.0000,1.0000,1.0000,2.4052,2.0000
156.0000,1.1247,656.0000,1.0000,2.0000,9.0000,1.0000,1.0000,2.5340,2.0000
193.0000,2.6455,1111.0000,1.0000,0.0000,9.0000,1.0000,1.0000,2.4499,2.0000
216.0000,3.1527,498.0000,1.0000,1.0000,9.0000,1.0000,1.0000,2.6184,2.0000
169.0000,1.0369,1008.0000,1.0000,2.0000,9.0000,1.0000,1.0000,2.7717,2.0000
162.0000,2.0056,501.0000,1.0000,2.0000,9.0000,1.0000,1.0000,2.5260,2.0000
169.0000,3.7090,581.0000,0.0000,1.0000,9.0000,1.0000,1.0000,2.5636,2.0000
160.0000,0.7518,679.0000,1.0000,2.0000,9.0000,1.0000,1.0000,2.5104,2.0000
209.0000,1.6640,540.0000,1.0000,1.0000,9.0000,1.0000,1.0000,2.6046,2.0000
150.0000,2.1113,570.0000,1.0000,2.0000,9.0000,1.0000,1.0000,2.5339,2.0000
158.0000,2.0909,638.0000,1.0000,2.0000,9.0000,1.0000,1.0000,2.4529,2.0000
239.0000,1.8482,489.0000,0.0000,0.0000,9.0000,1.0000,1.0000,2.6210,2.0000
274.0000,1.3233,635.0000,0.0000,0.0000,9.0000,1.0000,1.0000,2.4344,2.0000
274.0000,1.5348,951.0000,1.0000,0.0000,9.0000,1.0000,1.0000,2.6757,2.0000
215.0000,0.5868,765.0000,1.0000,1.0000,9.0000,1.0000,1.0000,2.6067,2.0000
243.0000,1.0153,1512.0000,1.0000,1.0000,9.0000,1.0000,1.0000,2.3920,2.0000
190.0000,2.3596,641.0000,1.0000,0.0000,9.0000,1.0000,1.0000,2.2493,2.0000
158.0000,1.8268,629.0000,1.0000,1.0000,9.0000,1.0000,1.0000,2.3094,2.0000
160.0000,1.1513,831.0000,0.0000,2.0000,9.0000,1.0000,1.0000,2.3226,2.0000
155.0000,0.1315,870.0000,1.0000,0.0000,9.0000,1.0000,1.0000,2.4409,2.0000
191.0000,1.6478,757.0000,1.0000,0.0000,9.0000,1.0000,1.0000,2.4596,2.0000
165.0000,2.2803,545.0000,0.0000,0.0000,9.0000,1.0000,1.0000,2.6928,2.0000
157.0000,2.1347,1021.0000,1.0000,1.0000,9.0000,1.0000,1.0000,2.2814,2.0000
153.0000,1.0407,704.0000,0.0000,2.0000,9.0000,1.0000,1.0000,2.4328,2.0000
227.0000,1.3805,843.0000,0.0000,0.0000,9.0000,1.0000,1.0000,2.5856,2.0000
167.0000,1.7680,857.0000,0.0000,2.0000,9.0000,1.0000,1.0000,2.4370,2.0000
150.0000,1.0512,577.0000,1.0000,2.0000,9.0000,1.0000,1.0000,2.4301,2.0000
222.0000,3.5579,758.0000,1.0000,0.0000,9.0000,1.0000,1.0000,2.3379,2.0000
239.0000,3.7267,460.0000,1.0000,0.0000,9.0000,1.0000,1.0000,2.4746,2.0000
164.0000,2.2570,635.0000,1.0000,1.0000,9.0000,1.0000,1.0000,2.5196,2.0000
274.0000,3.0941,668.0000,1.0000,0.0000,9.0000,1.0000,1.0000,2.5740,2.0000
150.0000,1.8255,624.0000,0.0000,2.0000,9.0000,1.0000,1.0000,2.4804,2.0000
157.0000,1.6903,774.0000,0.0000,1.0000,9.0000,1.0000,1.0000,2.5276,2.0000
265.0000,4.2776,1041.0000,0.0000,0.0000,9.0000,1.0000,1.0000,2.5790,2.0000
160.0000,2.1771,544.0000,0.0000,2.0000,9.0000,1.0000,1.0000,2.3936,2.0000
179.0000,1.1196,558.0000,1.0000,2.0000,9.0000,1.0000,1.0000,2.6377,2.0000
205.0000,0.6624,1759.0000,1.0000,1.0000,10.0000,1.0000,2.0000,2.4601,2.0000
274.0000,0.0476,815.0000,0.0000,0.0000,10.0000,1.0000,2.0000,2.5755,2.0000
174.0000,1.2071,759.0000,1.0000,1.0000,10.0000,1.0000,2.0000,2.2626,2.0000
166.0000,0.5805,705.0000,0.0000,2.0000,10.0000,1.0000,2.0000,2.3893,2.0000
162.0000,0.5946,675.0000,0.0000,2.0000,10.0000,1.0000,2.0000,2.4278,2.0000
201.0000,0.9689,668.0000,0.0000,1.0000,10.0000,1.0000,2.0000,2.6935,2.0000
164.0000,1.1440,612.0000,0.0000,2.0000,10.0000,1.0000,2.0000,2.4531,2.0000
232.0000,2.2173,1030.0000,0.0000,0.0000,10.0000,1.0000,2.0000,2.5080,2.0000
178.0000,0.3290,794.0000,0.0000,1.0000,10.0000,1.0000,2.0000,2.3652,2.0000
176.0000,1.3066,517.0000,1.0000,0.0000,10.0000,1.0000,2.0000,2.4761,2.0000
191.0000,1.1359,507.0000,1.0000,1.0000,10.0000,1.0000,2.0000,2.9453,2.0000
274.0000,1.9440,662.0000,1.0000,0.0000,10.0000,1.0000,2.0000,2.4026,2.0000
168.0000,1.1068,825.0000,1.0000,2.0000,10.0000,1.0000,2.0000,2.4447,2.0000
172.0000,1.8436,816.0000,1.0000,1.0000,10.0000,1.0000,2.0000,2.5268,2.0000
274.0000,1.3739,799.0000,1.0000,0.0000,10.0000,1.0000,2.0000,2.3562,2.0000
150.0000,0.5801,934.0000,0.0000,1.0000,10.0000,1.0000,2.0000,2.5971,2.0000
173.0000,2.7418,734.0000,0.0000,0.0000,10.0000,1.0000,2.0000,2.5428,2.0000
189.0000,1.4592,522.0000,1.0000,1.0000,10.0000,1.0000,2.0000,2.6120,2.0000
150.0000,1.2221,636.0000,0.0000,2.0000,10.0000,1.0000,2.0000,2.4535,2.0000
178.0000,1.3845,612.0000,1.0000,2.0000,10.0000,1.0000,2.0000,2.5872,2.0000
150.0000,1.3119,940.0000,1.0000,2.0000,10.0000,1.0000,2.0000,2.3715,2.0000
157.0000,0.6706,749.0000,1.0000,2.0000,10.0000,1.0000,2.0000,2.5506,2.0000
203.0000,2.4612,558.0000,1.0000,0.0000,10.0000,1.0000,2.0000,2.3904,2.0000
166.0000,1.0917,1082.0000,1.0000,2.0000,10.0000,1.0000,2.0000,2.2728,2.0000
246.0000,2.0930,671.0000,1.0000,0.0000,10.0000,1.0000,2.0000,2.4710,2.0000
274.0000,1.4417,657.0000,1.0000,0.0000,10.0000,1.0000,2.0000,2.3766,2.0000
274.0000,0.7552,717.0000,0.0000,0.0000,10.0000,1.0000,2.0000,2.5209,2.0000
208.0000,1.2432,563.0000,1.0000,0.0000,10.0000,1.0000,2.0000,2.4021,2.0000
203.0000,1.3329,703.0000,0.0000,0.0000,10.0000,1.0000,2.0000,2.6010,2.0000
150.0000,0.6360,511.0000,0.0000,2.0000,10.0000,1.0000,2.0000,2.3991,2.0000
168.0000,1.0114,570.0000,0.0000,2.0000,10.0000,1.0000,2.0000,2.4754,2.0000
160.0000,1.0422,900.0000,1.0000,1.0000,10.0000,1.0000,2.0000,2.4714,2.0000
203.0000,1.3516,885.0000,1.0000,1.0000,10.0000,1.0000,2.0000,2.6300,2.0000
150.0000,0.8890,567.0000,1.0000,2.0000,10.0000,1.0000,2.0000,2.5463,2.0000
182.0000,1.0002,543.0000,1.0000,1.0000,10.0000,1.0000,2.0000,2.3993,2.0000
150.0000,0.3193,578.0000,0.0000,0.0000,10.0000,1.0000,2.0000,2.5635,2.0000
249.0000,1.3518,1030.0000,1.0000,0.0000,10.0000,1.0000,2.0000,2.4046,2.0000
228.0000,0.3816,516.0000,1.0000,1.0000,10.0000,1.0000,2.0000,2.7363,2.0000
161.0000,0.5229,825.0000,1.0000,2.0000,10.0000,1.0000,2.0000,2.3922,2.0000
197.0000,2.3109,608.0000,1.0000,1.0000,10.0000,1.0000,2.0000,2.7252,2.0000
152.0000,1.3273,484.0000,1.0000,2.0000,10.0000,1.0000,2.0000,2.2963,2.0000
162.0000,1.0242,577.0000,1.0000,1.0000,10.0000,1.0000,2.0000,2.4692,2.0000
150.0000,1.5942,766.0000,0.0000,0.0000,10.0000,1.0000,2.0000,2.7222,2.0000
190.0000,0.6678,543.0000,1.0000,1.0000,10.0000,1.0000,2.0000,2.6233,2.0000
150.0000,1.1678,603.0000,1.0000,2.0000,10.0000,1.0000,2.0000,2.7660,2.0000
150.0000,2.0006,539.0000,1.0000,1.0000,10.0000,1.0000,2.0000,2.4758,2.0000
186.0000,1.4083,508.0000,1.0000,0.0000,10.0000,1.0000,2.0000,2.3772,2.0000
155.0000,1.4765,723.0000,0.0000,2.0000,10.0000,1.0000,2.0000,2.5129,2.0000
150.0000,1.8983,738.0000,1.0000,2.0000,10.0000,1.0000,2.0000,2.5216,2.0000
165.0000,0.9673,639.0000,1.0000,1.0000,10.0000,1.0000,2.0000,2.3666,2.0000
250.0000,3.3604,565.0000,0.0000,0.0000,10.0000,1.0000,2.0000,2.5772,2.0000
162.0000,0.7511,873.0000,1.0000,2.0000,10.0000,1.0000,2.0000,2.3822,2.0000
193.0000,0.9427,432.0000,1.0000,2.0000,10.0000,1.0000,2.0000,2.6134,2.0000
178.0000,1.4398,592.0000,0.0000,1.0000,10.0000,1.0000,2.0000,2.5058,2.0000
252.0000,3.0037,535.0000,0.0000,0.0000,10.0000,1.0000,2.0000,2.5956,2.0000
212.0000,0.4729,753.0000,1.0000,2.0000,10.0000,1.0000,2.0000,2.3761,2.0000
213.0000,1.6707,691.0000,1.0000,0.0000,10.0000,1.0000,2.0000,2.4043,2.0000
209.0000,2.0894,600.0000,0.0000,0.0000,10.0000,1.0000,2.0000,2.5280,2.0000
213.0000,0.7888,503.0000,0.0000,0.0000,10.0000,1.0000,2.0000,2.6254,2.0000
179.0000,1.8651,760.0000,1.0000,1.0000,10.0000,1.0000,2.0000,2.5549,2.0000
160.0000,1.7138,509.0000,1.0000,1.0000,10.0000,1.0000,2.0000,2.6408,2.0000
165.0000,0.6705,794.0000,0.0000,1.0000,10.0000,1.0000,2.0000,2.5533,2.0000
212.0000,0.7429,639.0000,1.0000,0.0000,10.0000,1.0000,2.0000,2.2525,2.0000
158.0000,0.6493,1366.0000,1.0000,2.0000,10.0000,1.0000,2.0000,2.4248,2.0000
173.0000,1.0489,755.0000,1.0000,1.0000,10.0000,1.0000,2.0000,2.4270,2.0000
204.0000,0.2559,754.0000,1.0000,0.0000,10.0000,1.0000,2.0000,2.2097,2.0000
189.0000,1.2533,848.0000,0.0000,0.0000,10.0000,1.0000,2.0000,2.6865,2.0000
158.0000,1.3286,469.0000,1.0000,2.0000,10.0000,1.0000,2.0000,2.7229,2.0000
150.0000,1.5336,697.0000,1.0000,2.0000,10.0000,1.0000,2.0000,2.4310,2.0000
150.0000,1.2539,538.0000,1.0000,2.0000,10.0000,1.0000,2.0000,2.4601,2.0000
215.0000,2.0814,617.0000,0.0000,0.0000,10.0000,1.0000,2.0000,2.5275,2.0000
173.0000,0.6397,756.0000,0.0000,1.0000,10.0000,1.0000,2.0000,2.5778,2.0000
257.0000,2.2512,1207.0000,0.0000,0.0000,10.0000,1.0000,2.0000,2.6405,2.0000
175.0000,0.7763,829.0000,0.0000,1.0000,10.0000,1.0000,2.0000,2.4516,2.0000
176.0000,1.9234,639.0000,0.0000,0.0000,10.0000,1.0000,2.0000,2.5882,2.0000
188.0000,1.4757,712.0000,0.0000,1.0000,10.0000,1.0000,2.0000,2.5924,2.0000
274.0000,0.5309,648.0000,1.0000,1.0000,10.0000,1.0000,2.0000,2.6362,2.0000
190.0000,1.4524,559.0000,0.0000,1.0000,10.0000,1.0000,2.0000,2.5208,2.0000
150.0000,0.8019,614.0000,1.0000,1.0000,10.0000,1.0000,2.0000,2.6579,2.0000
155.0000,0.1982,501.0000,0.0000,0.0000,10.0000,1.0000,2.0000,2.6057,2.0000
155.0000,1.5188,609.0000,1.0000,1.0000,10.0000,1.0000,2.0000,2.5864,2.0000
150.0000,0.5424,595.0000,1.0000,2.0000,10.0000,1.0000,2.0000,2.4098,2.0000
159.0000,0.8460,581.0000,0.0000,0.0000,10.0000,1.0000,2.0000,2.6770,2.0000
172.0000,2.4845,545.0000,1.0000,1.0000,10.0000,1.0000,2.0000,2.3708,2.0000
241.0000,1.6020,448.0000,0.0000,0.0000,10.0000,1.0000,2.0000,2.5450,2.0000
163.0000,0.9421,795.0000,0.0000,1.0000,10.0000,1.0000,2.0000,2.5926,2.0000
155.0000,2.0540,566.0000,1.0000,1.0000,10.0000,1.0000,2.0000,2.4174,2.0000
159.0000,1.6334,635.0000,0.0000,2.0000,10.0000,1.0000,2.0000,2.4745,2.0000
188.0000,1.6422,622.0000,1.0000,1.0000,10.0000,1.0000,2.0000,2.7636,2.0000
230.0000,-0.0978,616.0000,1.0000,0.0000,10.0000,1.0000,2.0000,2.4661,2.0000
150.0000,1.2466,892.0000,1.0000,2.0000,10.0000,1.0000,2.0000,2.6840,2.0000
169.0000,2.9609,503.0000,1.0000,1.0000,10.0000,1.0000,2.0000,2.4941,2.0000
227.0000,1.2075,556.0000,0.0000,0.0000,10.0000,1.0000,2.0000,2.6366,2.0000
170.0000,1.8574,545.0000,1.0000,1.0000,10.0000,1.0000,2.0000,2.7444,2.0000
163.0000,2.0746,605.0000,1.0000,1.0000,10.0000,1.0000,2.0000,2.4333,2.0000
153.0000,2.5760,605.0000,1.0000,1.0000,10.0000,1.0000,2.0000,2.6046,2.0000
269.0000,0.6837,553.0000,0.0000,0.0000,10.0000,1.0000,2.0000,2.5200,2.0000
154.0000,0.9281,550.0000,1.0000,2.0000,10.0000,1.0000,2.0000,2.6393,2.0000
170.0000,2.2828,557.0000,0.0000,0.0000,10.0000,1.0000,2.0000,2.5650,2.0000
150.0000,1.3398,543.0000,1.0000,2.0000,10.0000,1.0000,2.0000,2.6953,2.0000
150.0000,0.7403,899.0000,1.0000,2.0000,10.0000,1.0000,2.0000,2.3439,2.0000
172.0000,0.8695,688.0000,1.0000,2.0000,10.0000,1.0000,2.0000,2.5448,2.0000
176.0000,2.0421,469.0000,1.0000,1.0000,10.0000,1.0000,2.0000,2.3967,2.0000
274.0000,0.9294,515.0000,1.0000,0.0000,10.0000,1.0000,2.0000,2.2473,2.0000
168.0000,1.7298,498.0000,1.0000,1.0000,10.0000,1.0000,2.0000,2.5313,2.0000
207.0000,0.0804,994.0000,1.0000,0.0000,10.0000,1.0000,2.0000,2.3408,2.0000
208.0000,2.2687,578.0000,0.0000,0.0000,10.0000,1.0000,2.0000,2.6198,2.0000
150.0000,1.1856,859.0000,1.0000,2.0000,10.0000,1.0000,2.0000,2.4347,2.0000
168.0000,1.6455,626.0000,1.0000,1.0000,10.0000,1.0000,2.0000,2.6479,2.0000
150.0000,0.9797,1124.0000,1.0000,0.0000,10.0000,1.0000,2.0000,2.1935,2.0000
161.0000,1.3214,987.0000,1.0000,1.0000,10.0000,1.0000,2.0000,2.3729,2.0000
156.0000,1.8176,738.0000,1.0000,2.0000,10.0000,1.0000,2.0000,2.3740,2.0000
150.0000,1.2572,488.0000,1.0000,2.0000,10.0000,1.0000,2.0000,2.6254,2.0000
150.0000,0.4457,516.0000,1.0000,2.0000,10.0000,1.0000,2.0000,2.2734,2.0000
250.0000,1.1901,631.0000,1.0000,0.0000,10.0000,1.0000,2.0000,2.3704,2.0000
158.0000,2.3760,407.0000,1.0000,1.0000,10.0000,1.0000,2.0000,2.7131,2.0000
150.0000,0.5188,837.0000,0.0000,1.0000,10.0000,1.0000,2.0000,2.5546,2.0000
233.0000,1.4070,581.0000,0.0000,0.0000,10.0000,1.0000,2.0000,2.5121,2.0000
153.0000,0.4165,567.0000,1.0000,1.0000,10.0000,1.0000,2.0000,2.4357,2.0000
158.0000,2.0861,594.0000,1.0000,1.0000,10.0000,1.0000,2.0000,2.5726,2.0000
172.0000,0.7094,621.0000,0.0000,1.0000,10.0000,1.0000,2.0000,2.5172,2.0000
150.0000,1.1147,624.0000,1.0000,2.0000,10.0000,1.0000,2.0000,2.4002,2.0000
223.0000,2.3316,620.0000,1.0000,0.0000,10.0000,1.0000,2.0000,2.4426,2.0000
270.0000,1.6472,567.0000,1.0000,0.0000,10.0000,1.0000,2.0000,2.3314,2.0000
150.0000,1.2468,503.0000,1.0000,2.0000,10.0000,1.0000,2.0000,2.7436,2.0000
156.0000,1.0182,541.0000,1.0000,2.0000,10.0000,1.0000,2.0000,2.2638,2.0000
158.0000,1.6045,565.0000,1.0000,2.0000,10.0000,1.0000,2.0000,2.2748,2.0000
251.0000,1.1387,748.0000,1.0000,0.0000,10.0000,1.0000,2.0000,2.6422,2.0000
230.0000,1.6909,500.0000,1.0000,0.0000,10.0000,1.0000,2.0000,2.2398,2.0000
253.0000,0.8675,730.0000,1.0000,0.0000,10.0000,1.0000,2.0000,2.4495,2.0000
225.0000,1.8294,618.0000,1.0000,0.0000,10.0000,1.0000,2.0000,2.4529,2.0000
161.0000,1.4983,577.0000,1.0000,2.0000,10.0000,1.0000,2.0000,2.3801,2.0000
162.0000,1.1383,877.0000,1.0000,2.0000,10.0000,1.0000,2.0000,2.6182,2.0000
166.0000,1.1942,693.0000,1.0000,1.0000,10.0000,1.0000,2.0000,2.3024,2.0000
192.0000,1.7796,527.0000,0.0000,1.0000,10.0000,1.0000,2.0000,2.4897,2.0000
150.0000,0.7362,560.0000,1.0000,1.0000,10.0000,1.0000,2.0000,2.4653,2.0000
232.0000,1.3949,643.0000,0.0000,0.0000,10.0000,1.0000,2.0000,2.6093,2.0000
158.0000,0.2987,614.0000,1.0000,1.0000,10.0000,1.0000,2.0000,2.4011,2.0000
165.0000,0.8571,1334.0000,1.0000,1.0000,10.0000,1.0000,2.0000,2.5233,2.0000
167.0000,1.1196,589.0000,1.0000,2.0000,10.0000,1.0000,2.0000,2.2278,2.0000
262.0000,0.6455,1040.0000,0.0000,0.0000,10.0000,1.0000,2.0000,2.6403,2.0000
152.0000,1.2625,443.0000,1.0000,2.0000,10.0000,1.0000,2.0000,2.6375,2.0000
180.0000,2.2098,541.0000,1.0000,1.0000,10.0000,1.0000,2.0000,2.3016,2.0000
228.0000,1.2820,533.0000,1.0000,0.0000,10.0000,1.0000,2.0000,2.3523,2.0000
218.0000,2.3297,443.0000,1.0000,0.0000,10.0000,1.0000,2.0000,2.9242,2.0000
153.0000,1.4241,794.0000,1.0000,2.0000,10.0000,1.0000,2.0000,2.5278,2.0000
192.0000,1.1093,547.0000,0.0000,0.0000,10.0000,1.0000,2.0000,2.5850,2.0000
164.0000,1.3092,567.0000,1.0000,1.0000,10.0000,1.0000,2.0000,2.5047,2.0000
208.0000,2.6403,869.0000,0.0000,0.0000,10.0000,1.0000,2.0000,2.5159,2.0000
165.0000,1.6289,725.0000,1.0000,1.0000,10.0000,1.0000,2.0000,2.4683,2.0000
261.0000,1.6352,952.0000,1.0000,0.0000,10.0000,1.0000,2.0000,2.4533,2.0000
153.0000,0.6741,667.0000,1.0000,2.0000,10.0000,1.0000,2.0000,2.3089,2.0000
165.0000,1.3294,660.0000,1.0000,2.0000,10.0000,1.0000,2.0000,2.5136,2.0000
208.0000,2.4965,655.0000,1.0000,0.0000,10.0000,1.0000,2.0000,2.6592,2.0000
174.0000,0.7001,688.0000,1.0000,2.0000,10.0000,1.0000,2.0000,2.2330,2.0000
175.0000,1.8933,907.0000,0.0000,1.0000,11.0000,1.0000,1.0000,2.3239,3.0000
274.0000,1.1013,904.0000,1.0000,1.0000,11.0000,1.0000,1.0000,2.4348,3.0000
267.0000,1.6534,1057.0000,1.0000,0.0000,11.0000,1.0000,1.0000,2.4185,3.0000
169.0000,0.6601,1080.0000,1.0000,2.0000,11.0000,1.0000,1.0000,2.7005,3.0000
189.0000,0.6240,683.0000,0.0000,1.0000,11.0000,1.0000,1.0000,2.3814,3.0000
272.0000,2.0287,1301.0000,1.0000,1.0000,11.0000,1.0000,1.0000,2.6358,3.0000
165.0000,2.0773,627.0000,0.0000,1.0000,11.0000,1.0000,1.0000,2.4724,3.0000
274.0000,0.4306,829.0000,1.0000,0.0000,11.0000,1.0000,1.0000,2.7289,3.0000
186.0000,1.4261,813.0000,1.0000,1.0000,11.0000,1.0000,1.0000,2.6427,3.0000
189.0000,0.1521,1378.0000,1.0000,0.0000,11.0000,1.0000,1.0000,2.4021,3.0000
274.0000,0.3795,895.0000,1.0000,0.0000,11.0000,1.0000,1.0000,2.5619,3.0000
238.0000,0.5280,968.0000,1.0000,2.0000,11.0000,1.0000,1.0000,2.6510,3.0000
205.0000,1.9622,896.0000,0.0000,1.0000,11.0000,1.0000,1.0000,2.7144,3.0000
217.0000,1.3661,842.0000,1.0000,2.0000,11.0000,1.0000,1.0000,2.2548,3.0000
209.0000,0.5300,886.0000,1.0000,1.0000,11.0000,1.0000,1.0000,2.7459,3.0000
212.0000,0.2738,837.0000,1.0000,2.0000,11.0000,1.0000,1.0000,2.4429,3.0000
183.0000,0.4193,641.0000,1.0000,2.0000,11.0000,1.0000,1.0000,2.5593,3.0000
188.0000,0.7969,875.0000,1.0000,2.0000,11.0000,1.0000,1.0000,2.6386,3.0000
164.0000,1.1400,1025.0000,1.0000,2.0000,11.0000,1.0000,1.0000,2.4788,3.0000
191.0000,2.1371,639.0000,1.0000,1.0000,11.0000,1.0000,1.0000,2.5502,3.0000
260.0000,1.3216,942.0000,0.0000,0.0000,11.0000,1.0000,1.0000,2.4323,3.0000
208.0000,0.7589,907.0000,0.0000,0.0000,11.0000,1.0000,1.0000,2.4811,3.0000
196.0000,0.6681,728.0000,0.0000,0.0000,11.0000,1.0000,1.0000,2.4306,3.0000
177.0000,1.2717,606.0000,1.0000,2.0000,11.0000,1.0000,1.0000,2.5131,3.0000
165.0000,1.4458,769.0000,1.0000,2.0000,11.0000,1.0000,1.0000,2.2072,3.0000
190.0000,0.8906,1028.0000,0.0000,2.0000,11.0000,1.0000,1.0000,2.3384,3.0000
265.0000,1.5348,600.0000,1.0000,1.0000,11.0000,1.0000,1.0000,2.5194,3.0000
177.0000,2.4776,655.0000,0.0000,1.0000,11.0000,1.0000,1.0000,2.4018,3.0000
206.0000,1.6552,977.0000,0.0000,0.0000,11.0000,1.0000,1.0000,2.5434,3.0000
274.0000,1.5274,922.0000,0.0000,0.0000,11.0000,1.0000,1.0000,2.6056,3.0000
168.0000,1.3067,682.0000,1.0000,2.0000,11.0000,1.0000,1.0000,2.4476,3.0000
192.0000,0.3237,911.0000,1.0000,0.0000,11.0000,1.0000,1.0000,2.4290,3.0000
197.0000,1.6609,716.0000,0.0000,2.0000,11.0000,1.0000,1.0000,2.5254,3.0000
206.0000,-0.5983,669.0000,1.0000,1.0000,11.0000,1.0000,1.0000,2.6455,3.0000
274.0000,1.3712,770.0000,1.0000,0.0000,11.0000,1.0000,1.0000,2.4100,3.0000
189.0000,1.3026,1078.0000,1.0000,2.0000,11.0000,1.0000,1.0000,2.5265,3.0000
198.0000,2.4110,788.0000,0.0000,1.0000,11.0000,1.0000,1.0000,2.5150,3.0000
191.0000,2.3808,861.0000,0.0000,1.0000,11.0000,1.0000,1.0000,2.5270,3.0000
218.0000,1.1687,723.0000,1.0000,2.0000,11.0000,1.0000,1.0000,2.4274,3.0000
217.0000,1.9055,768.0000,0.0000,0.0000,11.0000,1.0000,1.0000,2.3656,3.0000
236.0000,1.8192,927.0000,0.0000,0.0000,11.0000,1.0000,1.0000,2.5965,3.0000
156.0000,0.3976,678.0000,1.0000,2.0000,11.0000,1.0000,1.0000,2.5899,3.0000
267.0000,1.7300,667.0000,1.0000,0.0000,11.0000,1.0000,1.0000,2.3635,3.0000
150.0000,-0.0000,855.0000,1.0000,2.0000,11.0000,1.0000,1.0000,2.3898,3.0000
274.0000,2.3987,720.0000,1.0000,0.0000,11.0000,1.0000,1.0000,2.4366,3.0000
274.0000,1.5440,702.0000,1.0000,0.0000,11.0000,1.0000,1.0000,2.2248,3.0000
242.0000,1.8046,747.0000,1.0000,0.0000,11.0000,1.0000,1.0000,2.5535,3.0000
178.0000,1.4791,606.0000,1.0000,2.0000,11.0000,1.0000,1.0000,2.4720,3.0000
208.0000,0.7101,765.0000,1.0000,1.0000,11.0000,1.0000,1.0000,2.3065,3.0000
182.0000,1.2745,769.0000,0.0000,2.0000,11.0000,1.0000,1.0000,2.5440,3.0000
199.0000,1.2920,694.0000,1.0000,1.0000,11.0000,1.0000,1.0000,2.3275,3.0000
165.0000,1.4262,713.0000,1.0000,2.0000,11.0000,1.0000,1.0000,2.3141,3.0000
212.0000,0.2757,910.0000,0.0000,1.0000,11.0000,1.0000,1.0000,2.4735,3.0000
274.0000,1.6900,707.0000,0.0000,0.0000,11.0000,1.0000,1.0000,2.4316,3.0000
172.0000,0.9318,584.0000,1.0000,2.0000,11.0000,1.0000,1.0000,2.6335,3.0000
274.0000,2.3740,684.0000,1.0000,0.0000,11.0000,1.0000,1.0000,2.3582,3.0000
238.0000,0.6590,748.0000,1.0000,1.0000,11.0000,1.0000,1.0000,2.2964,3.0000
213.0000,0.6308,767.0000,0.0000,1.0000,11.0000,1.0000,1.0000,2.6275,3.0000
261.0000,0.9968,655.0000,1.0000,0.0000,11.0000,1.0000,1.0000,2.5253,3.0000
202.0000,1.5970,699.0000,1.0000,0.0000,11.0000,1.0000,1.0000,2.8760,3.0000
158.0000,0.9870,595.0000,1.0000,1.0000,11.0000,1.0000,1.0000,2.3294,3.0000
245.0000,2.1828,804.0000,1.0000,1.0000,11.0000,1.0000,1.0000,2.3786,3.0000
213.0000,1.2121,682.0000,1.0000,2.0000,11.0000,1.0000,1.0000,2.3400,3.0000
193.0000,1.5719,780.0000,1.0000,1.0000,11.0000,1.0000,1.0000,2.3983,3.0000
247.0000,2.2515,675.0000,1.0000,0.0000,11.0000,1.0000,1.0000,2.5831,3.0000
274.0000,-0.5869,873.0000,1.0000,0.0000,11.0000,1.0000,1.0000,2.4573,3.0000
257.0000,1.9033,837.0000,0.0000,0.0000,11.0000,1.0000,1.0000,2.5037,3.0000
207.0000,2.4121,543.0000,1.0000,0.0000,11.0000,1.0000,1.0000,2.7794,3.0000
264.0000,1.2894,483.0000,1.0000,2.0000,11.0000,1.0000,1.0000,2.7047,3.0000
172.0000,2.3820,552.0000,1.0000,1.0000,11.0000,1.0000,1.0000,2.6046,3.0000
178.0000,1.2465,563.0000,1.0000,2.0000,11.0000,1.0000,1.0000,2.4540,3.0000
215.0000,1.1541,654.0000,1.0000,0.0000,11.0000,1.0000,1.0000,2.3356,3.0000
150.0000,0.9467,653.0000,1.0000,2.0000,11.0000,1.0000,1.0000,2.4906,3.0000
220.0000,2.0234,665.0000,0.0000,0.0000,11.0000,1.0000,1.0000,2.4959,3.0000
180.0000,2.1228,733.0000,1.0000,2.0000,11.0000,1.0000,1.0000,2.5859,3.0000
201.0000,3.2042,754.0000,0.0000,1.0000,11.0000,1.0000,1.0000,2.3920,3.0000
170.0000,1.5781,709.0000,1.0000,2.0000,11.0000,1.0000,1.0000,2.5564,3.0000
241.0000,1.1299,553.0000,1.0000,1.0000,11.0000,1.0000,1.0000,2.6156,3.0000
257.0000,2.3590,611.0000,0.0000,1.0000,11.0000,1.0000,1.0000,2.4492,3.0000
190.0000,1.0215,556.0000,1.0000,2.0000,11.0000,1.0000,1.0000,2.5255,3.0000
173.0000,1.7803,584.0000,1.0000,1.0000,11.0000,1.0000,1.0000,2.7476,3.0000
228.0000,0.9298,716.0000,1.0000,0.0000,11.0000,1.0000,1.0000,2.5567,3.0000
172.0000,1.3037,612.0000,1.0000,2.0000,11.0000,1.0000,1.0000,2.7821,3.0000
177.0000,1.8050,783.0000,0.0000,2.0000,11.0000,1.0000,1.0000,2.5662,3.0000
164.0000,1.1298,630.0000,1.0000,2.0000,11.0000,1.0000,1.0000,2.3266,3.0000
178.0000,1.8167,1008.0000,0.0000,2.0000,11.0000,1.0000,1.0000,2.3994,3.0000
235.0000,1.9163,740.0000,1.0000,0.0000,11.0000,1.0000,1.0000,2.3756,3.0000
208.0000,1.4076,842.0000,1.0000,1.0000,11.0000,1.0000,1.0000,2.3906,3.0000
245.0000,1.1675,858.0000,0.0000,1.0000,11.0000,1.0000,1.0000,2.4243,3.0000
181.0000,1.0054,664.0000,1.0000,2.0000,11.0000,1.0000,1.0000,2.3670,3.0000
179.0000,3.3736,905.0000,0.0000,1.0000,11.0000,1.0000,1.0000,2.4584,3.0000
177.0000,1.5178,624.0000,1.0000,2.0000,11.0000,1.0000,1.0000,2.5670,3.0000
181.0000,0.9318,578.0000,0.0000,1.0000,11.0000,1.0000,1.0000,2.4795,3.0000
217.0000,2.6176,920.0000,1.0000,0.0000,11.0000,1.0000,1.0000,2.4804,3.0000
172.0000,1.0626,722.0000,1.0000,2.0000,11.0000,1.0000,1.0000,2.3650,3.0000
170.0000,1.3664,579.0000,1.0000,2.0000,11.0000,1.0000,1.0000,2.2835,3.0000
274.0000,1.0255,830.0000,1.0000,0.0000,11.0000,1.0000,1.0000,2.5370,3.0000
274.0000,1.0385,852.0000,0.0000,2.0000,11.0000,1.0000,1.0000,2.6074,3.0000
174.0000,1.2263,874.0000,1.0000,2.0000,11.0000,1.0000,1.0000,2.5221,3.0000
270.0000,0.6883,631.0000,1.0000,0.0000,11.0000,1.0000,1.0000,2.6471,3.0000
249.0000,1.2167,565.0000,1.0000,0.0000,11.0000,1.0000,1.0000,2.5955,3.0000
167.0000,1.4086,781.0000,1.0000,2.0000,11.0000,1.0000,1.0000,2.7081,3.0000
157.0000,1.1308,907.0000,1.0000,2.0000,11.0000,1.0000,1.0000,2.4721,3.0000
243.0000,2.5970,773.0000,0.0000,0.0000,11.0000,1.0000,1.0000,2.4114,3.0000
150.0000,-0.0000,892.0000,0.0000,0.0000,11.0000,1.0000,1.0000,2.4410,3.0000
163.0000,1.4039,686.0000,1.0000,2.0000,11.0000,1.0000,1.0000,2.4955,3.0000
203.0000,1.6807,548.0000,1.0000,1.0000,11.0000,1.0000,1.0000,2.5581,3.0000
270.0000,2.0620,839.0000,1.0000,0.0000,11.0000,1.0000,1.0000,2.3191,3.0000
176.0000,1.3740,555.0000,1.0000,2.0000,11.0000,1.0000,1.0000,2.3729,3.0000
254.0000,2.7096,871.0000,1.0000,0.0000,11.0000,1.0000,1.0000,2.4520,3.0000
164.0000,0.7985,641.0000,1.0000,2.0000,11.0000,1.0000,1.0000,2.3522,3.0000
204.0000,1.3681,856.0000,1.0000,0.0000,11.0000,1.0000,1.0000,2.4275,3.0000
185.0000,1.3385,639.0000,1.0000,2.0000,11.0000,1.0000,1.0000,2.5605,3.0000
253.0000,1.4059,920.0000,1.0000,2.0000,11.0000,1.0000,1.0000,2.3399,3.0000
215.0000,0.3678,639.0000,1.0000,2.0000,11.0000,1.0000,1.0000,2.5893,3.0000
201.0000,1.5459,736.0000,1.0000,1.0000,11.0000,1.0000,1.0000,2.6125,3.0000
208.0000,1.2791,686.0000,1.0000,1.0000,11.0000,1.0000,1.0000,2.1363,3.0000
180.0000,1.2731,1182.0000,1.0000,0.0000,11.0000,1.0000,1.0000,2.2567,3.0000
165.0000,1.3453,703.0000,1.0000,2.0000,11.0000,1.0000,1.0000,2.4170,3.0000
274.0000,1.8764,820.0000,1.0000,1.0000,11.0000,1.0000,1.0000,2.3255,3.0000
167.0000,0.5887,493.0000,1.0000,1.0000,11.0000,1.0000,1.0000,2.5070,3.0000
205.0000,1.2503,804.0000,0.0000,0.0000,11.0000,1.0000,1.0000,2.4117,3.0000
255.0000,1.2141,702.0000,1.0000,0.0000,11.0000,1.0000,1.0000,2.5864,3.0000
187.0000,0.9404,731.0000,0.0000,2.0000,11.0000,1.0000,1.0000,2.5531,3.0000
201.0000,2.3863,883.0000,1.0000,1.0000,11.0000,1.0000,1.0000,2.3377,3.0000
177.0000,1.3894,483.0000,1.0000,2.0000,11.0000,1.0000,1.0000,2.3773,3.0000
155.0000,0.6277,955.0000,1.0000,2.0000,11.0000,1.0000,1.0000,2.5451,3.0000
192.0000,1.1887,942.0000,0.0000,0.0000,11.0000,1.0000,1.0000,2.4504,3.0000
188.0000,1.2179,824.0000,0.0000,0.0000,11.0000,1.0000,1.0000,2.4224,3.0000
219.0000,1.3470,780.0000,1.0000,0.0000,11.0000,1.0000,1.0000,2.6696,3.0000
230.0000,1.0550,751.0000,1.0000,0.0000,11.0000,1.0000,1.0000,2.6995,3.0000
165.0000,0.7979,887.0000,1.0000,2.0000,11.0000,1.0000,1.0000,2.4090,3.0000
253.0000,1.9482,583.0000,0.0000,1.0000,11.0000,1.0000,1.0000,2.4053,3.0000
239.0000,2.5351,577.0000,1.0000,1.0000,11.0000,1.0000,1.0000,2.7004,3.0000
226.0000,0.6490,638.0000,1.0000,0.0000,11.0000,1.0000,1.0000,2.5628,3.0000
258.0000,1.6269,960.0000,0.0000,0.0000,11.0000,1.0000,1.0000,2.5236,3.0000
218.0000,1.2660,754.0000,1.0000,1.0000,11.0000,1.0000,1.0000,2.4471,3.0000
171.0000,2.8994,760.0000,1.0000,1.0000,11.0000,1.0000,1.0000,2.4343,3.0000
250.0000,1.6128,658.0000,1.0000,0.0000,11.0000,1.0000,1.0000,2.5009,3.0000
185.0000,1.3300,935.0000,0.0000,1.0000,11.0000,1.0000,1.0000,2.4462,3.0000
263.0000,1.8620,848.0000,0.0000,0.0000,11.0000,1.0000,1.0000,2.5695,3.0000
242.0000,0.5886,615.0000,1.0000,0.0000,11.0000,1.0000,1.0000,2.5314,3.0000
184.0000,2.8123,722.0000,0.0000,1.0000,11.0000,1.0000,1.0000,2.5182,3.0000
150.0000,-0.0000,655.0000,0.0000,1.0000,11.0000,1.0000,1.0000,2.4822,3.0000
261.0000,1.1507,823.0000,1.0000,0.0000,11.0000,1.0000,1.0000,2.4698,3.0000
217.0000,1.5256,677.0000,1.0000,0.0000,11.0000,1.0000,1.0000,2.3004,3.0000
188.0000,2.0371,916.0000,0.0000,1.0000,11.0000,1.0000,1.0000,2.5534,3.0000
180.0000,2.0519,997.0000,0.0000,2.0000,11.0000,1.0000,1.0000,2.4266,3.0000
171.0000,1.3311,606.0000,1.0000,2.0000,11.0000,1.0000,1.0000,2.4643,3.0000
274.0000,1.8615,765.0000,1.0000,0.0000,11.0000,1.0000,1.0000,2.4634,3.0000
235.0000,1.2737,880.0000,0.0000,1.0000,11.0000,1.0000,1.0000,2.5741,3.0000
200.0000,1.1099,690.0000,1.0000,2.0000,11.0000,1.0000,1.0000,2.6745,3.0000
222.0000,-0.1302,1032.0000,0.0000,1.0000,11.0000,1.0000,1.0000,2.6041,3.0000
236.0000,1.7672,955.0000,0.0000,0.0000,11.0000,1.0000,1.0000,2.4949,3.0000
264.0000,1.6116,809.0000,1.0000,0.0000,11.0000,1.0000,1.0000,2.5428,3.0000
237.0000,0.7588,1089.0000,1.0000,0.0000,11.0000,1.0000,1.0000,2.5756,3.0000
179.0000,0.9090,802.0000,1.0000,2.0000,12.0000,1.0000,2.0000,2.3722,3.0000
274.0000,1.3447,925.0000,0.0000,0.0000,12.0000,1.0000,2.0000,2.5281,3.0000
161.0000,1.9480,942.0000,0.0000,1.0000,12.0000,1.0000,2.0000,2.5469,3.0000
195.0000,1.8089,542.0000,0.0000,1.0000,12.0000,1.0000,2.0000,2.4421,3.0000
152.0000,0.3623,1024.0000,1.0000,2.0000,12.0000,1.0000,2.0000,2.5485,3.0000
252.0000,1.3984,824.0000,1.0000,0.0000,12.0000,1.0000,2.0000,2.4020,3.0000
260.0000,0.5832,665.0000,1.0000,0.0000,12.0000,1.0000,2.0000,2.5332,3.0000
189.0000,0.6764,638.0000,1.0000,2.0000,12.0000,1.0000,2.0000,2.4299,3.0000
157.0000,1.8146,602.0000,1.0000,2.0000,12.0000,1.0000,2.0000,2.5926,3.0000
257.0000,0.2074,1072.0000,0.0000,0.0000,12.0000,1.0000,2.0000,2.4419,3.0000
212.0000,1.8524,882.0000,1.0000,1.0000,12.0000,1.0000,2.0000,2.5460,3.0000
219.0000,0.9032,684.0000,1.0000,0.0000,12.0000,1.0000,2.0000,2.5236,3.0000
217.0000,1.5681,873.0000,1.0000,0.0000,12.0000,1.0000,2.0000,2.3797,3.0000
243.0000,1.1726,999.0000,1.0000,2.0000,12.0000,1.0000,2.0000,2.4881,3.0000
230.0000,1.5247,568.0000,1.0000,0.0000,12.0000,1.0000,2.0000,2.6031,3.0000
200.0000,1.1777,746.0000,0.0000,1.0000,12.0000,1.0000,2.0000,2.3959,3.0000
274.0000,1.8463,741.0000,0.0000,1.0000,12.0000,1.0000,2.0000,2.4762,3.0000
228.0000,0.3788,772.0000,1.0000,0.0000,12.0000,1.0000,2.0000,2.6743,3.0000
228.0000,1.8005,878.0000,1.0000,1.0000,12.0000,1.0000,2.0000,2.5152,3.0000
207.0000,1.3467,627.0000,1.0000,2.0000,12.0000,1.0000,2.0000,2.4572,3.0000
172.0000,1.3601,643.0000,1.0000,2.0000,12.0000,1.0000,2.0000,2.5346,3.0000
178.0000,1.1032,1161.0000,0.0000,2.0000,12.0000,1.0000,2.0000,2.4015,3.0000
274.0000,1.0550,824.0000,1.0000,0.0000,12.0000,1.0000,2.0000,2.3461,3.0000
182.0000,1.0245,656.0000,1.0000,2.0000,12.0000,1.0000,2.0000,2.5534,3.0000
219.0000,1.9830,700.0000,0.0000,1.0000,12.0000,1.0000,2.0000,2.2876,3.0000
248.0000,0.5957,1010.0000,1.0000,0.0000,12.0000,1.0000,2.0000,2.5283,3.0000
267.0000,2.1474,845.0000,0.0000,1.0000,12.0000,1.0000,2.0000,2.4359,3.0000
175.0000,1.0374,835.0000,0.0000,2.0000,12.0000,1.0000,2.0000,2.4634,3.0000
206.0000,1.3288,658.0000,1.0000,0.0000,12.0000,1.0000,2.0000,2.5849,3.0000
165.0000,1.2178,629.0000,1.0000,2.0000,12.0000,1.0000,2.0000,2.3468,3.0000
238.0000,0.6173,797.0000,1.0000,0.0000,12.0000,1.0000,2.0000,2.2233,3.0000
171.0000,1.6161,587.0000,1.0000,2.0000,12.0000,1.0000,2.0000,2.6003,3.0000
160.0000,1.6683,599.0000,1.0000,2.0000,12.0000,1.0000,2.0000,2.2866,3.0000
223.0000,1.0808,1060.0000,1.0000,1.0000,12.0000,1.0000,2.0000,2.6229,3.0000
221.0000,1.9600,1035.0000,1.0000,0.0000,12.0000,1.0000,2.0000,2.5893,3.0000
257.0000,0.6338,775.0000,1.0000,0.0000,12.0000,1.0000,2.0000,2.4792,3.0000
250.0000,1.1513,847.0000,1.0000,1.0000,12.0000,1.0000,2.0000,2.5731,3.0000
163.0000,1.7724,701.0000,1.0000,2.0000,12.0000,1.0000,2.0000,2.4145,3.0000
174.0000,0.7291,958.0000,1.0000,2.0000,12.0000,1.0000,2.0000,2.3524,3.0000
258.0000,0.4384,790.0000,1.0000,0.0000,12.0000,1.0000,2.0000,2.5874,3.0000
185.0000,0.8894,750.0000,1.0000,2.0000,12.0000,1.0000,2.0000,2.4493,3.0000
256.0000,0.7032,669.0000,1.0000,2.0000,12.0000,1.0000,2.0000,2.2487,3.0000
260.0000,1.7106,613.0000,1.0000,1.0000,12.0000,1.0000,2.0000,2.5404,3.0000
245.0000,1.5323,924.0000,1.0000,0.0000,12.0000,1.0000,2.0000,2.6083,3.0000
183.0000,1.3629,620.0000,1.0000,2.0000,12.0000,1.0000,2.0000,2.5723,3.0000
182.0000,1.3680,690.0000,1.0000,2.0000,12.0000,1.0000,2.0000,2.3577,3.0000
244.0000,2.2524,586.0000,1.0000,1.0000,12.0000,1.0000,2.0000,2.5726,3.0000
186.0000,0.8154,780.0000,1.0000,0.0000,12.0000,1.0000,2.0000,2.3738,3.0000
175.0000,1.3076,963.0000,0.0000,2.0000,12.0000,1.0000,2.0000,2.4143,3.0000
251.0000,0.9042,583.0000,1.0000,1.0000,12.0000,1.0000,2.0000,2.6029,3.0000
211.0000,0.8910,561.0000,1.0000,1.0000,12.0000,1.0000,2.0000,2.6581,3.0000
160.0000,0.9762,962.0000,1.0000,2.0000,12.0000,1.0000,2.0000,2.4165,3.0000
242.0000,1.5648,560.0000,1.0000,0.0000,12.0000,1.0000,2.0000,2.6538,3.0000
195.0000,0.8877,920.0000,0.0000,2.0000,12.0000,1.0000,2.0000,2.5920,3.0000
186.0000,0.9864,904.0000,0.0000,1.0000,12.0000,1.0000,2.0000,2.2839,3.0000
156.0000,1.3499,692.0000,1.0000,2.0000,12.0000,1.0000,2.0000,2.2372,3.0000
258.0000,1.9183,548.0000,1.0000,1.0000,12.0000,1.0000,2.0000,2.5786,3.0000
203.0000,1.1871,542.0000,1.0000,1.0000,12.0000,1.0000,2.0000,2.5628,3.0000
256.0000,1.6264,681.0000,1.0000,0.0000,12.0000,1.0000,2.0000,2.6318,3.0000
174.0000,1.6064,604.0000,0.0000,1.0000,12.0000,1.0000,2.0000,2.3658,3.0000
226.0000,1.0142,817.0000,0.0000,0.0000,12.0000,1.0000,2.0000,2.4570,3.0000
258.0000,2.5466,881.0000,1.0000,0.0000,12.0000,1.0000,2.0000,2.4271,3.0000
171.0000,1.7623,1205.0000,0.0000,1.0000,12.0000,1.0000,2.0000,2.5583,3.0000
261.0000,0.9482,594.0000,1.0000,1.0000,12.0000,1.0000,2.0000,2.8682,3.0000
274.0000,1.8357,713.0000,1.0000,1.0000,12.0000,1.0000,2.0000,2.2648,3.0000
274.0000,0.7249,878.0000,1.0000,0.0000,12.0000,1.0000,2.0000,2.6065,3.0000
157.0000,1.0526,588.0000,1.0000,2.0000,12.0000,1.0000,2.0000,2.2920,3.0000
176.0000,1.0515,613.0000,1.0000,2.0000,12.0000,1.0000,2.0000,2.7688,3.0000
256.0000,2.0716,629.0000,1.0000,0.0000,12.0000,1.0000,2.0000,2.2779,3.0000
175.0000,2.0913,837.0000,1.0000,2.0000,12.0000,1.0000,2.0000,2.5831,3.0000
178.0000,1.9872,557.0000,1.0000,1.0000,12.0000,1.0000,2.0000,2.7162,3.0000
270.0000,1.7278,861.0000,1.0000,0.0000,12.0000,1.0000,2.0000,2.4614,3.0000
168.0000,0.6379,1049.0000,0.0000,2.0000,12.0000,1.0000,2.0000,2.4357,3.0000
235.0000,2.7111,595.0000,1.0000,0.0000,12.0000,1.0000,2.0000,2.6949,3.0000
242.0000,1.7604,698.0000,1.0000,1.0000,12.0000,1.0000,2.0000,2.5216,3.0000
200.0000,2.2994,541.0000,1.0000,1.0000,12.0000,1.0000,2.0000,2.5242,3.0000
251.0000,1.9843,655.0000,1.0000,0.0000,12.0000,1.0000,2.0000,2.4465,3.0000
189.0000,1.1174,758.0000,1.0000,2.0000,12.0000,1.0000,2.0000,2.5127,3.0000
233.0000,1.6397,982.0000,1.0000,1.0000,12.0000,1.0000,2.0000,2.2853,3.0000
177.0000,1.1070,1099.0000,1.0000,2.0000,12.0000,1.0000,2.0000,2.4264,3.0000
274.0000,0.9464,1051.0000,1.0000,2.0000,12.0000,1.0000,2.0000,2.3896,3.0000
170.0000,1.7039,762.0000,0.0000,2.0000,12.0000,1.0000,2.0000,2.4174,3.0000
224.0000,1.1991,784.0000,1.0000,0.0000,12.0000,1.0000,2.0000,2.5840,3.0000
232.0000,0.1703,636.0000,1.0000,1.0000,12.0000,1.0000,2.0000,2.4033,3.0000
228.0000,1.7352,638.0000,1.0000,1.0000,12.0000,1.0000,2.0000,2.5528,3.0000
195.0000,2.0217,750.0000,1.0000,1.0000,12.0000,1.0000,2.0000,2.3943,3.0000
187.0000,1.8784,628.0000,0.0000,2.0000,12.0000,1.0000,2.0000,2.5807,3.0000
201.0000,0.8335,577.0000,1.0000,1.0000,12.0000,1.0000,2.0000,2.5717,3.0000
181.0000,1.2399,557.0000,1.0000,2.0000,12.0000,1.0000,2.0000,2.4432,3.0000
150.0000,0.8854,627.0000,1.0000,1.0000,12.0000,1.0000,2.0000,2.4373,3.0000
188.0000,1.8811,476.0000,1.0000,1.0000,12.0000,1.0000,2.0000,2.5333,3.0000
201.0000,1.1120,878.0000,1.0000,2.0000,12.0000,1.0000,2.0000,2.5601,3.0000
165.0000,1.0300,566.0000,1.0000,2.0000,12.0000,1.0000,2.0000,2.4200,3.0000
252.0000,2.4397,835.0000,1.0000,0.0000,12.0000,1.0000,2.0000,2.4234,3.0000
274.0000,1.9401,668.0000,0.0000,1.0000,12.0000,1.0000,2.0000,2.3722,3.0000
257.0000,0.3545,909.0000,0.0000,0.0000,12.0000,1.0000,2.0000,2.6576,3.0000
249.0000,0.7225,672.0000,1.0000,1.0000,12.0000,1.0000,2.0000,2.6544,3.0000
178.0000,1.9613,798.0000,1.0000,1.0000,12.0000,1.0000,2.0000,2.5876,3.0000
244.0000,1.8023,878.0000,0.0000,1.0000,12.0000,1.0000,2.0000,2.4330,3.0000
267.0000,1.6526,932.0000,1.0000,0.0000,12.0000,1.0000,2.0000,2.6007,3.0000
265.0000,4.5479,898.0000,0.0000,1.0000,12.0000,1.0000,2.0000,2.5200,3.0000
242.0000,2.2370,723.0000,0.0000,0.0000,12.0000,1.0000,2.0000,2.4548,3.0000
274.0000,0.3630,796.0000,1.0000,2.0000,12.0000,1.0000,2.0000,2.6549,3.0000
234.0000,1.2829,681.0000,1.0000,0.0000,12.0000,1.0000,2.0000,2.6142,3.0000
267.0000,1.6697,739.0000,1.0000,2.0000,12.0000,1.0000,2.0000,2.4345,3.0000
175.0000,0.9469,662.0000,1.0000,2.0000,12.0000,1.0000,2.0000,2.6694,3.0000
202.0000,1.2570,553.0000,1.0000,2.0000,12.0000,1.0000,2.0000,2.4826,3.0000
242.0000,1.6226,800.0000,1.0000,1.0000,12.0000,1.0000,2.0000,2.6225,3.0000
172.0000,1.1138,710.0000,1.0000,2.0000,12.0000,1.0000,2.0000,2.5821,3.0000
199.0000,2.5264,624.0000,1.0000,0.0000,12.0000,1.0000,2.0000,2.5720,3.0000
260.0000,2.1095,676.0000,1.0000,1.0000,12.0000,1.0000,2.0000,2.5768,3.0000
241.0000,1.2052,861.0000,1.0000,0.0000,12.0000,1.0000,2.0000,2.3529,3.0000
208.0000,2.3199,715.0000,0.0000,1.0000,12.0000,1.0000,2.0000,2.4723,3.0000
227.0000,0.7947,914.0000,0.0000,0.0000,12.0000,1.0000,2.0000,2.4167,3.0000
274.0000,2.0879,545.0000,1.0000,1.0000,12.0000,1.0000,2.0000,2.7917,3.0000
227.0000,1.5188,1046.0000,0.0000,1.0000,12.0000,1.0000,2.0000,2.4436,3.0000
242.0000,1.0784,749.0000,1.0000,0.0000,12.0000,1.0000,2.0000,2.6317,3.0000
260.0000,1.0033,556.0000,1.0000,2.0000,12.0000,1.0000,2.0000,2.4623,3.0000
241.0000,0.7911,739.0000,0.0000,2.0000,12.0000,1.0000,2.0000,2.5291,3.0000
251.0000,1.1111,873.0000,1.0000,0.0000,12.0000,1.0000,2.0000,2.4588,3.0000
267.0000,0.7440,1016.0000,0.0000,0.0000,12.0000,1.0000,2.0000,2.4488,3.0000
164.0000,0.6789,607.0000,1.0000,2.0000,12.0000,1.0000,2.0000,2.7693,3.0000
174.0000,2.3243,741.0000,1.0000,1.0000,12.0000,1.0000,2.0000,2.5412,3.0000
274.0000,1.3859,669.0000,0.0000,0.0000,12.0000,1.0000,2.0000,2.4294,3.0000
227.0000,2.0374,654.0000,1.0000,0.0000,12.0000,1.0000,2.0000,2.8400,3.0000
163.0000,0.6685,854.0000,0.0000,1.0000,12.0000,1.0000,2.0000,2.4590,3.0000
274.0000,1.5512,1027.0000,0.0000,2.0000,12.0000,1.0000,2.0000,2.6042,3.0000
274.0000,0.4564,1166.0000,1.0000,0.0000,12.0000,1.0000,2.0000,2.4765,3.0000
165.0000,0.6130,528.0000,1.0000,2.0000,12.0000,1.0000,2.0000,2.3861,3.0000
274.0000,1.3144,792.0000,0.0000,0.0000,12.0000,1.0000,2.0000,2.4740,3.0000
187.0000,1.5579,534.0000,1.0000,1.0000,12.0000,1.0000,2.0000,2.7594,3.0000
204.0000,2.0110,627.0000,1.0000,1.0000,12.0000,1.0000,2.0000,2.4653,3.0000
263.0000,1.2315,754.0000,1.0000,0.0000,12.0000,1.0000,2.0000,2.5491,3.0000
246.0000,2.3134,661.0000,1.0000,1.0000,12.0000,1.0000,2.0000,2.5500,3.0000
238.0000,1.0737,666.0000,1.0000,0.0000,12.0000,1.0000,2.0000,2.5343,3.0000
198.0000,0.4026,549.0000,0.0000,0.0000,12.0000,1.0000,2.0000,2.3858,3.0000
228.0000,1.1306,791.0000,1.0000,0.0000,12.0000,1.0000,2.0000,2.7365,3.0000
198.0000,1.3373,849.0000,0.0000,1.0000,12.0000,1.0000,2.0000,2.4219,3.0000
175.0000,0.9035,590.0000,1.0000,2.0000,12.0000,1.0000,2.0000,2.6694,3.0000
274.0000,1.5570,480.0000,1.0000,0.0000,12.0000,1.0000,2.0000,2.4491,3.0000
206.0000,1.2718,663.0000,1.0000,0.0000,12.0000,1.0000,2.0000,2.8182,3.0000
228.0000,0.7371,591.0000,1.0000,2.0000,12.0000,1.0000,2.0000,2.3124,3.0000
258.0000,1.9826,634.0000,1.0000,1.0000,12.0000,1.0000,2.0000,2.5742,3.0000
184.0000,1.1869,874.0000,1.0000,2.0000,12.0000,1.0000,2.0000,2.5854,3.0000
204.0000,0.4175,810.0000,0.0000,1.0000,12.0000,1.0000,2.0000,2.4804,3.0000
169.0000,0.8304,948.0000,1.0000,2.0000,12.0000,1.0000,2.0000,2.6594,3.0000
168.0000,2.1172,929.0000,1.0000,2.0000,12.0000,1.0000,2.0000,2.5601,3.0000
205.0000,0.3025,574.0000,0.0000,0.0000,12.0000,1.0000,2.0000,2.4651,3.0000
210.0000,1.3069,776.0000,1.0000,0.0000,12.0000,1.0000,2.0000,2.6027,3.0000
247.0000,1.2552,712.0000,1.0000,0.0000,12.0000,1.0000,2.0000,2.4580,3.0000
259.0000,1.3685,830.0000,1.0000,0.0000,12.0000,1.0000,2.0000,2.4991,3.0000
260.0000,0.7770,789.0000,1.0000,2.0000,12.0000,1.0000,2.0000,2.5771,3.0000
176.0000,0.6514,841.0000,1.0000,1.0000,12.0000,1.0000,2.0000,2.3445,3.0000
224.0000,2.4718,699.0000,0.0000,1.0000,12.0000,1.0000,2.0000,2.4900,3.0000
175.0000,1.6236,1282.0000,1.0000,2.0000,12.0000,1.0000,2.0000,2.4097,3.0000
209.0000,1.1373,673.0000,1.0000,0.0000,12.0000,1.0000,2.0000,2.1642,3.0000
244.0000,2.0095,543.0000,0.0000,1.0000,12.0000,1.0000,2.0000,2.4702,3.0000
239.0000,1.8271,535.0000,1.0000,1.0000,12.0000,1.0000,2.0000,2.6753,3.0000
274.0000,1.5699,904.0000,1.0000,1.0000,13.0000,1.0000,1.0000,2.5187,4.0000
235.0000,2.4722,896.0000,1.0000,2.0000,13.0000,1.0000,1.0000,2.5660,4.0000
233.0000,1.9864,1045.0000,0.0000,1.0000,13.0000,1.0000,1.0000,2.6798,4.0000
274.0000,2.4746,837.0000,1.0000,2.0000,13.0000,1.0000,1.0000,2.6016,4.0000
167.0000,1.9437,841.0000,1.0000,1.0000,13.0000,1.0000,1.0000,2.4297,4.0000
180.0000,0.4029,781.0000,0.0000,1.0000,13.0000,1.0000,1.0000,2.4885,4.0000
274.0000,0.3946,930.0000,1.0000,0.0000,13.0000,1.0000,1.0000,2.3149,4.0000
194.0000,1.6152,893.0000,0.0000,1.0000,13.0000,1.0000,1.0000,2.5224,4.0000
274.0000,-0.2947,1137.0000,1.0000,1.0000,13.0000,1.0000,1.0000,2.4391,4.0000
270.0000,-0.1500,1111.0000,0.0000,1.0000,13.0000,1.0000,1.0000,2.3538,4.0000
217.0000,3.1558,835.0000,1.0000,1.0000,13.0000,1.0000,1.0000,2.6247,4.0000
150.0000,-0.1072,768.0000,1.0000,2.0000,13.0000,1.0000,1.0000,2.3326,4.0000
237.0000,2.6751,604.0000,1.0000,2.0000,13.0000,1.0000,1.0000,2.6127,4.0000
187.0000,1.7971,602.0000,1.0000,0.0000,13.0000,1.0000,1.0000,2.2310,4.0000
167.0000,2.9685,984.0000,1.0000,1.0000,13.0000,1.0000,1.0000,2.6543,4.0000
241.0000,-0.7721,1249.0000,1.0000,2.0000,13.0000,1.0000,1.0000,2.5120,4.0000
196.0000,1.6407,888.0000,1.0000,0.0000,13.0000,1.0000,1.0000,2.4553,4.0000
210.0000,1.3387,749.0000,1.0000,1.0000,13.0000,1.0000,1.0000,2.3494,4.0000
154.0000,2.2060,953.0000,1.0000,2.0000,13.0000,1.0000,1.0000,2.3178,4.0000
153.0000,0.9673,598.0000,1.0000,1.0000,13.0000,1.0000,1.0000,2.6188,4.0000
187.0000,0.3340,778.0000,0.0000,0.0000,13.0000,1.0000,1.0000,2.6166,4.0000
272.0000,0.4878,842.0000,1.0000,0.0000,13.0000,1.0000,1.0000,2.4658,4.0000
168.0000,1.9876,879.0000,0.0000,2.0000,13.0000,1.0000,1.0000,2.4552,4.0000
165.0000,1.4211,466.0000,1.0000,1.0000,13.0000,1.0000,1.0000,2.5185,4.0000
217.0000,0.4686,746.0000,1.0000,2.0000,13.0000,1.0000,1.0000,2.4128,4.0000
261.0000,2.9072,790.0000,1.0000,2.0000,13.0000,1.0000,1.0000,2.3894,4.0000
198.0000,-0.1019,857.0000,1.0000,0.0000,13.0000,1.0000,1.0000,2.7034,4.0000
170.0000,1.3573,752.0000,1.0000,2.0000,13.0000,1.0000,1.0000,2.3873,4.0000
184.0000,2.5005,741.0000,1.0000,1.0000,13.0000,1.0000,1.0000,2.3417,4.0000
204.0000,2.9522,897.0000,1.0000,0.0000,13.0000,1.0000,1.0000,2.4596,4.0000
193.0000,1.9178,626.0000,1.0000,1.0000,13.0000,1.0000,1.0000,2.6140,4.0000
274.0000,2.9227,942.0000,0.0000,0.0000,13.0000,1.0000,1.0000,2.5142,4.0000
182.0000,0.5824,659.0000,0.0000,1.0000,13.0000,1.0000,1.0000,2.4334,4.0000
162.0000,1.7310,733.0000,1.0000,1.0000,13.0000,1.0000,1.0000,2.1864,4.0000
240.0000,2.6202,575.0000,1.0000,2.0000,13.0000,1.0000,1.0000,2.7042,4.0000
195.0000,1.2661,564.0000,1.0000,0.0000,13.0000,1.0000,1.0000,2.4731,4.0000
184.0000,1.1047,577.0000,1.0000,1.0000,13.0000,1.0000,1.0000,2.7647,4.0000
163.0000,3.0211,568.0000,1.0000,2.0000,13.0000,1.0000,1.0000,2.5119,4.0000
176.0000,2.7757,599.0000,1.0000,0.0000,13.0000,1.0000,1.0000,2.4187,4.0000
187.0000,1.6360,685.0000,1.0000,2.0000,13.0000,1.0000,1.0000,2.4694,4.0000
232.0000,2.6437,582.0000,1.0000,2.0000,13.0000,1.0000,1.0000,2.6252,4.0000
234.0000,1.7472,771.0000,1.0000,0.0000,13.0000,1.0000,1.0000,2.4538,4.0000
221.0000,1.9985,660.0000,0.0000,0.0000,13.0000,1.0000,1.0000,2.6013,4.0000
234.0000,0.8031,637.0000,1.0000,2.0000,13.0000,1.0000,1.0000,2.5346,4.0000
168.0000,1.6017,686.0000,1.0000,2.0000,13.0000,1.0000,1.0000,2.5237,4.0000
202.0000,3.7476,722.0000,1.0000,1.0000,13.0000,1.0000,1.0000,2.5353,4.0000
241.0000,2.0855,762.0000,1.0000,2.0000,13.0000,1.0000,1.0000,2.5475,4.0000
175.0000,0.7364,624.0000,1.0000,2.0000,13.0000,1.0000,1.0000,2.4509,4.0000
257.0000,2.0278,540.0000,1.0000,1.0000,13.0000,1.0000,1.0000,2.6741,4.0000
274.0000,0.5323,779.0000,0.0000,0.0000,13.0000,1.0000,1.0000,2.6288,4.0000
206.0000,0.1691,972.0000,1.0000,0.0000,13.0000,1.0000,1.0000,2.4440,4.0000
206.0000,2.5397,640.0000,1.0000,0.0000,13.0000,1.0000,1.0000,2.4194,4.0000
202.0000,1.2801,688.0000,1.0000,0.0000,13.0000,1.0000,1.0000,2.3913,4.0000
210.0000,2.2508,921.0000,0.0000,0.0000,13.0000,1.0000,1.0000,2.5625,4.0000
168.0000,3.1052,602.0000,1.0000,2.0000,13.0000,1.0000,1.0000,2.3313,4.0000
274.0000,0.9915,630.0000,1.0000,0.0000,13.0000,1.0000,1.0000,2.3704,4.0000
260.0000,1.1405,774.0000,1.0000,2.0000,13.0000,1.0000,1.0000,2.5809,4.0000
168.0000,2.8419,612.0000,1.0000,2.0000,13.0000,1.0000,1.0000,2.5933,4.0000
163.0000,-0.4053,1037.0000,0.0000,1.0000,13.0000,1.0000,1.0000,2.4171,4.0000
173.0000,3.4569,828.0000,1.0000,2.0000,13.0000,1.0000,1.0000,2.4779,4.0000
216.0000,1.0757,735.0000,1.0000,0.0000,13.0000,1.0000,1.0000,2.2887,4.0000
172.0000,2.7207,981.0000,1.0000,2.0000,13.0000,1.0000,1.0000,2.4881,4.0000
198.0000,1.1692,623.0000,1.0000,1.0000,13.0000,1.0000,1.0000,2.6783,4.0000
232.0000,2.2142,704.0000,1.0000,0.0000,13.0000,1.0000,1.0000,2.3610,4.0000
267.0000,1.6018,865.0000,0.0000,0.0000,13.0000,1.0000,1.0000,2.6498,4.0000
188.0000,2.1228,821.0000,1.0000,0.0000,13.0000,1.0000,1.0000,2.4396,4.0000
259.0000,1.4532,1045.0000,1.0000,2.0000,13.0000,1.0000,1.0000,2.5855,4.0000
150.0000,-0.0231,901.0000,1.0000,1.0000,13.0000,1.0000,1.0000,2.4510,4.0000
220.0000,0.4373,998.0000,1.0000,2.0000,13.0000,1.0000,1.0000,2.3291,4.0000
247.0000,2.8801,764.0000,0.0000,1.0000,13.0000,1.0000,1.0000,2.4842,4.0000
174.0000,1.4906,1182.0000,1.0000,2.0000,13.0000,1.0000,1.0000,2.4903,4.0000
174.0000,0.6041,771.0000,0.0000,2.0000,13.0000,1.0000,1.0000,2.5608,4.0000
162.0000,1.0625,738.0000,1.0000,2.0000,13.0000,1.0000,1.0000,2.6028,4.0000
198.0000,1.6210,1186.0000,0.0000,0.0000,13.0000,1.0000,1.0000,2.5432,4.0000
150.0000,-0.0000,856.0000,1.0000,2.0000,13.0000,1.0000,1.0000,2.3514,4.0000
150.0000,-0.0000,722.0000,1.0000,0.0000,13.0000,1.0000,1.0000,2.4448,4.0000
150.0000,-0.0000,822.0000,1.0000,2.0000,13.0000,1.0000,1.0000,2.6693,4.0000
150.0000,-0.0000,645.0000,1.0000,1.0000,13.0000,1.0000,1.0000,2.6090,4.0000
227.0000,3.1481,751.0000,1.0000,2.0000,13.0000,1.0000,1.0000,2.3219,4.0000
274.0000,0.3999,849.0000,1.0000,1.0000,13.0000,1.0000,1.0000,2.5051,4.0000
150.0000,-0.0000,692.0000,1.0000,1.0000,13.0000,1.0000,1.0000,2.5210,4.0000
265.0000,0.1974,816.0000,0.0000,0.0000,13.0000,1.0000,1.0000,2.6308,4.0000
180.0000,1.9610,542.0000,1.0000,1.0000,13.0000,1.0000,1.0000,2.5276,4.0000
188.0000,1.6778,855.0000,1.0000,2.0000,13.0000,1.0000,1.0000,2.6301,4.0000
177.0000,2.1232,699.0000,0.0000,2.0000,13.0000,1.0000,1.0000,2.5200,4.0000
235.0000,0.0924,508.0000,0.0000,1.0000,13.0000,1.0000,1.0000,2.3787,4.0000
159.0000,1.8440,767.0000,1.0000,0.0000,13.0000,1.0000,1.0000,2.6405,4.0000
223.0000,1.9271,729.0000,0.0000,0.0000,13.0000,1.0000,1.0000,2.5045,4.0000
172.0000,0.5730,704.0000,1.0000,2.0000,13.0000,1.0000,1.0000,2.6155,4.0000
235.0000,1.9597,816.0000,0.0000,0.0000,13.0000,1.0000,1.0000,2.5084,4.0000
181.0000,1.5220,620.0000,1.0000,2.0000,13.0000,1.0000,1.0000,2.5456,4.0000
173.0000,2.2054,770.0000,1.0000,0.0000,13.0000,1.0000,1.0000,2.4410,4.0000
244.0000,0.8284,888.0000,1.0000,2.0000,13.0000,1.0000,1.0000,2.4676,4.0000
150.0000,1.2517,809.0000,0.0000,1.0000,13.0000,1.0000,1.0000,2.4871,4.0000
182.0000,1.8055,853.0000,0.0000,0.0000,13.0000,1.0000,1.0000,2.6616,4.0000
247.0000,2.3879,779.0000,1.0000,0.0000,13.0000,1.0000,1.0000,2.4032,4.0000
160.0000,2.3909,578.0000,1.0000,1.0000,13.0000,1.0000,1.0000,2.7856,4.0000
240.0000,2.0407,719.0000,1.0000,0.0000,13.0000,1.0000,1.0000,2.4109,4.0000
208.0000,2.8971,740.0000,0.0000,0.0000,13.0000,1.0000,1.0000,2.6283,4.0000
251.0000,1.0132,644.0000,1.0000,1.0000,13.0000,1.0000,1.0000,2.7095,4.0000
184.0000,1.8132,835.0000,1.0000,1.0000,13.0000,1.0000,1.0000,2.4565,4.0000
220.0000,1.4754,633.0000,1.0000,2.0000,13.0000,1.0000,1.0000,2.4352,4.0000
236.0000,3.4092,892.0000,1.0000,0.0000,13.0000,1.0000,1.0000,2.3781,4.0000
228.0000,2.4452,1029.0000,0.0000,1.0000,13.0000,1.0000,1.0000,2.3811,4.0000
230.0000,1.6128,735.0000,1.0000,0.0000,13.0000,1.0000,1.0000,2.3859,4.0000
208.0000,-0.5808,665.0000,1.0000,2.0000,13.0000,1.0000,1.0000,2.3784,4.0000
274.0000,-0.2482,665.0000,1.0000,0.0000,13.0000,1.0000,1.0000,2.4384,4.0000
176.0000,1.7726,708.0000,0.0000,2.0000,13.0000,1.0000,1.0000,2.4264,4.0000
210.0000,-0.1427,622.0000,1.0000,2.0000,13.0000,1.0000,1.0000,2.2407,4.0000
265.0000,3.0903,874.0000,1.0000,0.0000,13.0000,1.0000,1.0000,2.5772,4.0000
176.0000,3.9253,833.0000,1.0000,2.0000,13.0000,1.0000,1.0000,2.3611,4.0000
220.0000,2.3644,585.0000,1.0000,1.0000,13.0000,1.0000,1.0000,2.5118,4.0000
239.0000,-0.6789,1322.0000,1.0000,1.0000,13.0000,1.0000,1.0000,2.4548,4.0000
237.0000,3.5577,1138.0000,1.0000,1.0000,13.0000,1.0000,1.0000,2.4299,4.0000
163.0000,0.8250,643.0000,1.0000,1.0000,13.0000,1.0000,1.0000,2.5468,4.0000
167.0000,2.3711,880.0000,0.0000,2.0000,13.0000,1.0000,1.0000,2.5629,4.0000
165.0000,1.2727,735.0000,1.0000,2.0000,13.0000,1.0000,1.0000,2.4753,4.0000
163.0000,2.9440,876.0000,0.0000,2.0000,13.0000,1.0000,1.0000,2.5093,4.0000
152.0000,1.8009,861.0000,1.0000,1.0000,13.0000,1.0000,1.0000,2.4623,4.0000
195.0000,1.3775,862.0000,1.0000,0.0000,13.0000,1.0000,1.0000,2.4720,4.0000
223.0000,2.5015,764.0000,1.0000,1.0000,13.0000,1.0000,1.0000,2.3827,4.0000
150.0000,1.6180,713.0000,1.0000,1.0000,13.0000,1.0000,1.0000,2.2929,4.0000
173.0000,1.1016,589.0000,1.0000,2.0000,13.0000,1.0000,1.0000,2.7665,4.0000
178.0000,0.1799,837.0000,0.0000,1.0000,13.0000,1.0000,1.0000,2.4457,4.0000
213.0000,1.4579,533.0000,0.0000,0.0000,13.0000,1.0000,1.0000,2.5601,4.0000
201.0000,2.5587,797.0000,1.0000,0.0000,13.0000,1.0000,1.0000,2.4583,4.0000
156.0000,0.8681,663.0000,1.0000,2.0000,13.0000,1.0000,1.0000,2.5689,4.0000
249.0000,0.4128,655.0000,1.0000,0.0000,13.0000,1.0000,1.0000,2.3522,4.0000
204.0000,1.2602,592.0000,1.0000,0.0000,13.0000,1.0000,1.0000,2.4495,4.0000
234.0000,2.0364,673.0000,0.0000,0.0000,13.0000,1.0000,1.0000,2.5047,4.0000
256.0000,1.7603,720.0000,1.0000,0.0000,13.0000,1.0000,1.0000,2.2823,4.0000
207.0000,0.3971,644.0000,1.0000,0.0000,13.0000,1.0000,1.0000,2.4506,4.0000
201.0000,2.3469,660.0000,1.0000,0.0000,13.0000,1.0000,1.0000,2.4116,4.0000
213.0000,1.0456,840.0000,1.0000,2.0000,13.0000,1.0000,1.0000,2.3436,4.0000
250.0000,2.6584,992.0000,0.0000,0.0000,13.0000,1.0000,1.0000,2.5826,4.0000
244.0000,1.3687,995.0000,1.0000,2.0000,13.0000,1.0000,1.0000,2.6852,4.0000
244.0000,3.0466,736.0000,1.0000,0.0000,13.0000,1.0000,1.0000,2.7222,4.0000
259.0000,3.8740,993.0000,0.0000,0.0000,13.0000,1.0000,1.0000,2.5860,4.0000
171.0000,2.6001,781.0000,1.0000,1.0000,13.0000,1.0000,1.0000,2.2744,4.0000
202.0000,1.5186,806.0000,1.0000,2.0000,13.0000,1.0000,1.0000,2.3313,4.0000
274.0000,2.9062,939.0000,1.0000,1.0000,13.0000,1.0000,1.0000,2.5652,4.0000
179.0000,0.3848,741.0000,1.0000,0.0000,13.0000,1.0000,1.0000,2.8145,4.0000
224.0000,2.3675,981.0000,1.0000,2.0000,13.0000,1.0000,1.0000,2.5192,4.0000
226.0000,0.8517,723.0000,0.0000,0.0000,13.0000,1.0000,1.0000,2.5499,4.0000
152.0000,3.4412,1054.0000,0.0000,1.0000,13.0000,1.0000,1.0000,2.4687,4.0000
192.0000,2.7116,816.0000,0.0000,1.0000,13.0000,1.0000,1.0000,2.4742,4.0000
181.0000,0.0223,748.0000,1.0000,0.0000,13.0000,1.0000,1.0000,2.4815,4.0000
260.0000,1.2874,813.0000,0.0000,1.0000,13.0000,1.0000,1.0000,2.4840,4.0000
215.0000,3.0167,1113.0000,0.0000,2.0000,13.0000,1.0000,1.0000,2.5331,4.0000
160.0000,3.2365,824.0000,1.0000,1.0000,13.0000,1.0000,1.0000,2.5588,4.0000
198.0000,2.3734,860.0000,0.0000,0.0000,13.0000,1.0000,1.0000,2.6071,4.0000
204.0000,1.4947,816.0000,1.0000,0.0000,13.0000,1.0000,1.0000,2.2999,4.0000
205.0000,1.0044,1087.0000,1.0000,0.0000,13.0000,1.0000,1.0000,2.5330,4.0000
167.0000,0.9108,938.0000,0.0000,2.0000,13.0000,1.0000,1.0000,2.4867,4.0000
233.0000,2.9400,1076.0000,1.0000,0.0000,13.0000,1.0000,1.0000,2.4527,4.0000
214.0000,3.0623,901.0000,1.0000,2.0000,13.0000,1.0000,1.0000,2.4538,4.0000
176.0000,1.8252,893.0000,1.0000,2.0000,13.0000,1.0000,1.0000,2.4314,4.0000
219.0000,2.8521,658.0000,1.0000,1.0000,13.0000,1.0000,1.0000,2.4967,4.0000
182.0000,1.4371,809.0000,1.0000,1.0000,13.0000,1.0000,1.0000,2.3318,4.0000
161.0000,-0.1093,952.0000,1.0000,2.0000,14.0000,1.0000,2.0000,2.5039,4.0000
180.0000,1.9796,1020.0000,0.0000,0.0000,14.0000,1.0000,2.0000,2.6106,4.0000
150.0000,1.8583,740.0000,1.0000,1.0000,14.0000,1.0000,2.0000,2.5128,4.0000
150.0000,1.3725,716.0000,0.0000,1.0000,14.0000,1.0000,2.0000,2.2738,4.0000
186.0000,0.3036,778.0000,1.0000,0.0000,14.0000,1.0000,2.0000,2.8331,4.0000
196.0000,1.4609,822.0000,1.0000,2.0000,14.0000,1.0000,2.0000,2.1555,4.0000
186.0000,1.7616,844.0000,1.0000,0.0000,14.0000,1.0000,2.0000,2.4060,4.0000
224.0000,-0.4565,825.0000,1.0000,1.0000,14.0000,1.0000,2.0000,2.5019,4.0000
179.0000,-0.3763,1032.0000,0.0000,1.0000,14.0000,1.0000,2.0000,2.4304,4.0000
191.0000,0.8711,747.0000,0.0000,0.0000,14.0000,1.0000,2.0000,2.5102,4.0000
176.0000,1.1376,551.0000,0.0000,2.0000,14.0000,1.0000,2.0000,2.4888,4.0000
157.0000,0.3275,470.0000,1.0000,1.0000,14.0000,1.0000,2.0000,2.5267,4.0000
185.0000,0.0726,848.0000,1.0000,2.0000,14.0000,1.0000,2.0000,2.3518,4.0000
224.0000,1.9743,654.0000,1.0000,0.0000,14.0000,1.0000,2.0000,2.3706,4.0000
274.0000,0.9690,777.0000,0.0000,2.0000,14.0000,1.0000,2.0000,2.5644,4.0000
230.0000,0.1588,605.0000,1.0000,2.0000,14.0000,1.0000,2.0000,2.5509,4.0000
274.0000,1.6583,899.0000,1.0000,0.0000,14.0000,1.0000,2.0000,2.4056,4.0000
229.0000,3.2536,930.0000,0.0000,0.0000,14.0000,1.0000,2.0000,2.5654,4.0000
150.0000,1.3331,972.0000,0.0000,2.0000,14.0000,1.0000,2.0000,2.5821,4.0000
200.0000,3.2862,766.0000,1.0000,0.0000,14.0000,1.0000,2.0000,2.6891,4.0000
226.0000,0.9045,966.0000,0.0000,0.0000,14.0000,1.0000,2.0000,2.4192,4.0000
153.0000,0.4833,621.0000,1.0000,1.0000,14.0000,1.0000,2.0000,2.5727,4.0000
162.0000,1.9862,696.0000,1.0000,1.0000,14.0000,1.0000,2.0000,2.5382,4.0000
161.0000,1.8278,612.0000,0.0000,1.0000,14.0000,1.0000,2.0000,2.4904,4.0000
154.0000,0.8314,615.0000,0.0000,1.0000,14.0000,1.0000,2.0000,2.4657,4.0000
203.0000,0.8676,961.0000,0.0000,0.0000,14.0000,1.0000,2.0000,2.5098,4.0000
268.0000,1.3094,911.0000,1.0000,1.0000,14.0000,1.0000,2.0000,2.4645,4.0000
174.0000,1.6269,1026.0000,0.0000,2.0000,14.0000,1.0000,2.0000,2.5795,4.0000
166.0000,2.4438,737.0000,1.0000,2.0000,14.0000,1.0000,2.0000,2.6218,4.0000
195.0000,3.6680,727.0000,0.0000,0.0000,14.0000,1.0000,2.0000,2.6654,4.0000
167.0000,2.9467,625.0000,1.0000,1.0000,14.0000,1.0000,2.0000,2.5704,4.0000
176.0000,1.6590,602.0000,1.0000,1.0000,14.0000,1.0000,2.0000,2.7629,4.0000
250.0000,1.2823,688.0000,1.0000,1.0000,14.0000,1.0000,2.0000,2.4085,4.0000
166.0000,1.4465,1062.0000,0.0000,0.0000,14.0000,1.0000,2.0000,2.5343,4.0000
199.0000,1.1917,722.0000,1.0000,2.0000,14.0000,1.0000,2.0000,2.7762,4.0000
201.0000,1.6015,775.0000,0.0000,0.0000,14.0000,1.0000,2.0000,2.5640,4.0000
150.0000,0.5158,579.0000,1.0000,2.0000,14.0000,1.0000,2.0000,1.9636,4.0000
212.0000,0.5675,659.0000,1.0000,0.0000,14.0000,1.0000,2.0000,2.3815,4.0000
159.0000,1.5031,1099.0000,0.0000,1.0000,14.0000,1.0000,2.0000,2.4617,4.0000
192.0000,2.8742,907.0000,1.0000,0.0000,14.0000,1.0000,2.0000,2.7530,4.0000
172.0000,0.2070,611.0000,0.0000,1.0000,14.0000,1.0000,2.0000,2.3890,4.0000
166.0000,1.2937,586.0000,1.0000,2.0000,14.0000,1.0000,2.0000,2.3183,4.0000
182.0000,1.2428,799.0000,1.0000,2.0000,14.0000,1.0000,2.0000,2.5561,4.0000
177.0000,1.9491,705.0000,1.0000,1.0000,14.0000,1.0000,2.0000,2.1066,4.0000
204.0000,1.4919,814.0000,0.0000,0.0000,14.0000,1.0000,2.0000,2.5320,4.0000
187.0000,1.1170,1055.0000,1.0000,0.0000,14.0000,1.0000,2.0000,2.4105,4.0000
164.0000,1.3190,817.0000,1.0000,2.0000,14.0000,1.0000,2.0000,2.5463,4.0000
165.0000,1.8830,880.0000,1.0000,2.0000,14.0000,1.0000,2.0000,2.4479,4.0000
198.0000,2.9994,749.0000,0.0000,0.0000,14.0000,1.0000,2.0000,2.5170,4.0000
172.0000,1.2858,680.0000,1.0000,2.0000,14.0000,1.0000,2.0000,2.3246,4.0000
165.0000,1.5256,668.0000,1.0000,2.0000,14.0000,1.0000,2.0000,2.6430,4.0000
174.0000,0.4115,716.0000,1.0000,2.0000,14.0000,1.0000,2.0000,2.5560,4.0000
167.0000,1.8907,689.0000,1.0000,1.0000,14.0000,1.0000,2.0000,2.6345,4.0000
165.0000,0.3983,968.0000,1.0000,1.0000,14.0000,1.0000,2.0000,2.4465,4.0000
183.0000,2.9373,800.0000,1.0000,0.0000,14.0000,1.0000,2.0000,2.4141,4.0000
173.0000,1.2613,689.0000,1.0000,2.0000,14.0000,1.0000,2.0000,2.5996,4.0000
219.0000,2.5638,649.0000,0.0000,0.0000,14.0000,1.0000,2.0000,2.5838,4.0000
178.0000,1.8776,792.0000,1.0000,1.0000,14.0000,1.0000,2.0000,2.3270,4.0000
159.0000,0.5266,777.0000,1.0000,1.0000,14.0000,1.0000,2.0000,2.3357,4.0000
274.0000,-0.9455,635.0000,1.0000,0.0000,14.0000,1.0000,2.0000,2.3732,4.0000
175.0000,2.4878,606.0000,1.0000,2.0000,14.0000,1.0000,2.0000,2.4861,4.0000
168.0000,0.6431,599.0000,1.0000,1.0000,14.0000,1.0000,2.0000,2.5654,4.0000
167.0000,0.4705,673.0000,1.0000,0.0000,14.0000,1.0000,2.0000,2.5927,4.0000
210.0000,0.4702,708.0000,1.0000,0.0000,14.0000,1.0000,2.0000,2.3037,4.0000
170.0000,0.9269,605.0000,1.0000,2.0000,14.0000,1.0000,2.0000,2.5312,4.0000
233.0000,0.1131,665.0000,1.0000,1.0000,14.0000,1.0000,2.0000,2.5185,4.0000
175.0000,0.6196,793.0000,1.0000,2.0000,14.0000,1.0000,2.0000,2.5672,4.0000
176.0000,2.0904,610.0000,0.0000,1.0000,14.0000,1.0000,2.0000,2.4679,4.0000
179.0000,1.7461,709.0000,0.0000,0.0000,14.0000,1.0000,2.0000,2.6215,4.0000
169.0000,0.8590,724.0000,1.0000,1.0000,14.0000,1.0000,2.0000,2.5115,4.0000
166.0000,1.6817,673.0000,1.0000,2.0000,14.0000,1.0000,2.0000,2.5438,4.0000
165.0000,1.1277,660.0000,1.0000,2.0000,14.0000,1.0000,2.0000,2.5399,4.0000
172.0000,1.4801,836.0000,1.0000,2.0000,14.0000,1.0000,2.0000,2.3754,4.0000
150.0000,1.7338,625.0000,0.0000,1.0000,14.0000,1.0000,2.0000,2.4467,4.0000
163.0000,1.0047,593.0000,1.0000,2.0000,14.0000,1.0000,2.0000,2.5740,4.0000
167.0000,1.8218,631.0000,1.0000,2.0000,14.0000,1.0000,2.0000,2.5450,4.0000
168.0000,1.2264,682.0000,1.0000,2.0000,14.0000,1.0000,2.0000,2.3429,4.0000
157.0000,1.9165,847.0000,0.0000,1.0000,14.0000,1.0000,2.0000,2.5198,4.0000
163.0000,1.5090,797.0000,1.0000,2.0000,14.0000,1.0000,2.0000,2.4497,4.0000
158.0000,0.3295,828.0000,1.0000,1.0000,14.0000,1.0000,2.0000,2.4197,4.0000
158.0000,0.3902,720.0000,1.0000,1.0000,14.0000,1.0000,2.0000,2.6280,4.0000
150.0000,0.0753,656.0000,1.0000,1.0000,14.0000,1.0000,2.0000,2.5662,4.0000
171.0000,0.6456,909.0000,1.0000,2.0000,14.0000,1.0000,2.0000,2.4461,4.0000
233.0000,0.7553,773.0000,1.0000,1.0000,14.0000,1.0000,2.0000,2.2521,4.0000
163.0000,-0.0644,690.0000,1.0000,2.0000,14.0000,1.0000,2.0000,2.4672,4.0000
163.0000,1.4187,1034.0000,0.0000,2.0000,14.0000,1.0000,2.0000,2.6370,4.0000
207.0000,0.4836,870.0000,0.0000,0.0000,14.0000,1.0000,2.0000,2.5459,4.0000
261.0000,1.4962,921.0000,0.0000,0.0000,14.0000,1.0000,2.0000,2.5723,4.0000
167.0000,1.6376,822.0000,1.0000,2.0000,14.0000,1.0000,2.0000,2.6429,4.0000
160.0000,1.5137,793.0000,1.0000,1.0000,14.0000,1.0000,2.0000,2.6179,4.0000
156.0000,0.5560,748.0000,1.0000,1.0000,14.0000,1.0000,2.0000,2.2828,4.0000
225.0000,0.5708,867.0000,1.0000,0.0000,14.0000,1.0000,2.0000,2.4914,4.0000
196.0000,1.0097,864.0000,0.0000,2.0000,14.0000,1.0000,2.0000,2.5405,4.0000
173.0000,0.7163,738.0000,1.0000,2.0000,14.0000,1.0000,2.0000,2.7254,4.0000
230.0000,0.5442,916.0000,0.0000,0.0000,14.0000,1.0000,2.0000,2.5974,4.0000
180.0000,1.6784,764.0000,1.0000,1.0000,14.0000,1.0000,2.0000,2.5778,4.0000
158.0000,0.5037,994.0000,1.0000,1.0000,14.0000,1.0000,2.0000,2.4081,4.0000
150.0000,0.5790,965.0000,0.0000,1.0000,14.0000,1.0000,2.0000,2.5531,4.0000
183.0000,1.3488,755.0000,1.0000,0.0000,14.0000,1.0000,2.0000,2.7436,4.0000
150.0000,2.3473,1074.0000,0.0000,1.0000,14.0000,1.0000,2.0000,2.3351,4.0000
162.0000,1.1907,928.0000,0.0000,2.0000,14.0000,1.0000,2.0000,2.5541,4.0000
175.0000,1.0631,735.0000,1.0000,2.0000,14.0000,1.0000,2.0000,2.7363,4.0000
187.0000,2.0142,736.0000,1.0000,1.0000,14.0000,1.0000,2.0000,2.3919,4.0000
191.0000,0.9160,599.0000,1.0000,0.0000,14.0000,1.0000,2.0000,2.3820,4.0000
221.0000,0.6044,800.0000,1.0000,2.0000,14.0000,1.0000,2.0000,2.8728,4.0000
179.0000,0.2519,679.0000,1.0000,1.0000,14.0000,1.0000,2.0000,2.7008,4.0000
185.0000,1.0141,915.0000,1.0000,0.0000,14.0000,1.0000,2.0000,2.7888,4.0000
157.0000,0.9418,1001.0000,0.0000,1.0000,14.0000,1.0000,2.0000,2.4492,4.0000
156.0000,1.6993,882.0000,1.0000,2.0000,14.0000,1.0000,2.0000,2.4444,4.0000
225.0000,1.4686,831.0000,0.0000,0.0000,14.0000,1.0000,2.0000,2.6821,4.0000
238.0000,1.5095,868.0000,1.0000,2.0000,14.0000,1.0000,2.0000,2.5594,4.0000
169.0000,0.6594,681.0000,1.0000,1.0000,14.0000,1.0000,2.0000,2.5234,4.0000
172.0000,1.3347,807.0000,1.0000,1.0000,14.0000,1.0000,2.0000,2.4134,4.0000
186.0000,1.5605,614.0000,1.0000,2.0000,14.0000,1.0000,2.0000,2.7555,4.0000
220.0000,1.0092,751.0000,1.0000,0.0000,14.0000,1.0000,2.0000,2.3085,4.0000
150.0000,0.4221,566.0000,1.0000,1.0000,14.0000,1.0000,2.0000,2.5439,4.0000
167.0000,0.9107,837.0000,1.0000,1.0000,14.0000,1.0000,2.0000,2.5803,4.0000
170.0000,0.7643,918.0000,1.0000,2.0000,14.0000,1.0000,2.0000,2.5484,4.0000
236.0000,1.5122,948.0000,1.0000,0.0000,14.0000,1.0000,2.0000,2.6286,4.0000
233.0000,0.9182,907.0000,1.0000,2.0000,14.0000,1.0000,2.0000,2.5926,4.0000
196.0000,3.1118,1082.0000,0.0000,0.0000,14.0000,1.0000,2.0000,2.5085,4.0000
165.0000,0.9641,869.0000,0.0000,1.0000,14.0000,1.0000,2.0000,2.4126,4.0000
176.0000,2.1422,1028.0000,0.0000,0.0000,14.0000,1.0000,2.0000,2.4713,4.0000
156.0000,1.5625,811.0000,0.0000,1.0000,14.0000,1.0000,2.0000,2.4396,4.0000
274.0000,0.7646,896.0000,1.0000,0.0000,14.0000,1.0000,2.0000,2.4485,4.0000
157.0000,0.9978,660.0000,1.0000,1.0000,14.0000,1.0000,2.0000,2.5617,4.0000
274.0000,0.7330,824.0000,1.0000,2.0000,14.0000,1.0000,2.0000,2.4714,4.0000
163.0000,0.9870,710.0000,1.0000,1.0000,14.0000,1.0000,2.0000,2.5230,4.0000
193.0000,0.7194,1235.0000,0.0000,2.0000,14.0000,1.0000,2.0000,2.4773,4.0000
186.0000,1.4637,1079.0000,1.0000,2.0000,14.0000,1.0000,2.0000,2.5390,4.0000
206.0000,1.6410,896.0000,1.0000,0.0000,14.0000,1.0000,2.0000,2.3857,4.0000
178.0000,1.5301,881.0000,1.0000,1.0000,14.0000,1.0000,2.0000,2.3231,4.0000
183.0000,1.7150,766.0000,1.0000,2.0000,14.0000,1.0000,2.0000,2.4470,4.0000
189.0000,1.8813,786.0000,1.0000,2.0000,14.0000,1.0000,2.0000,2.5493,4.0000
150.0000,1.2836,1205.0000,1.0000,2.0000,14.0000,1.0000,2.0000,2.4528,4.0000
150.0000,0.7147,736.0000,1.0000,0.0000,14.0000,1.0000,2.0000,2.3446,4.0000
150.0000,-0.2640,618.0000,1.0000,0.0000,14.0000,1.0000,2.0000,2.4815,4.0000
250.0000,1.3789,714.0000,0.0000,1.0000,14.0000,1.0000,2.0000,2.4222,4.0000
226.0000,2.0777,869.0000,1.0000,0.0000,14.0000,1.0000,2.0000,2.6441,4.0000
174.0000,1.2368,564.0000,0.0000,2.0000,14.0000,1.0000,2.0000,2.4478,4.0000
175.0000,1.1179,604.0000,1.0000,1.0000,14.0000,1.0000,2.0000,2.4909,4.0000
155.0000,2.2820,559.0000,1.0000,1.0000,14.0000,1.0000,2.0000,2.5803,4.0000
160.0000,0.9089,737.0000,1.0000,1.0000,14.0000,1.0000,2.0000,2.4565,4.0000
156.0000,1.6487,594.0000,1.0000,2.0000,14.0000,1.0000,2.0000,2.3563,4.0000
157.0000,1.1772,802.0000,1.0000,2.0000,14.0000,1.0000,2.0000,2.3565,4.0000
150.0000,0.2926,1850.0000,0.0000,0.0000,14.0000,1.0000,2.0000,2.6130,4.0000
181.0000,2.1950,644.0000,1.0000,0.0000,14.0000,1.0000,2.0000,2.4530,4.0000
175.0000,-0.2482,809.0000,1.0000,1.0000,14.0000,1.0000,2.0000,2.5840,4.0000
176.0000,2.4333,509.0000,1.0000,0.0000,14.0000,1.0000,2.0000,2.3982,4.0000
166.0000,1.2083,430.0000,1.0000,2.0000,14.0000,1.0000,2.0000,2.6485,4.0000
173.0000,2.2038,696.0000,1.0000,0.0000,14.0000,1.0000,2.0000,2.4523,4.0000
150.0000,0.3151,1340.0000,1.0000,0.0000,14.0000,1.0000,2.0000,2.5499,4.0000
171.0000,2.1994,625.0000,0.0000,1.0000,14.0000,1.0000,2.0000,2.4007,4.0000
216.0000,0.9966,601.0000,1.0000,0.0000,14.0000,1.0000,2.0000,2.3422,4.0000
205.0000,2.6541,706.0000,1.0000,0.0000,14.0000,1.0000,2.0000,2.3603,4.0000
234.0000,0.2492,859.0000,1.0000,2.0000,15.0000,1.0000,1.0000,2.6212,5.0000
274.0000,2.0106,901.0000,0.0000,0.0000,15.0000,1.0000,1.0000,2.4576,5.0000
224.0000,0.6670,1315.0000,0.0000,0.0000,15.0000,1.0000,1.0000,2.8560,5.0000
246.0000,1.2817,757.0000,0.0000,1.0000,15.0000,1.0000,1.0000,2.4187,5.0000
206.0000,1.5074,966.0000,1.0000,1.0000,15.0000,1.0000,1.0000,2.4947,5.0000
154.0000,0.8446,684.0000,1.0000,2.0000,15.0000,1.0000,1.0000,2.4227,5.0000
162.0000,1.2940,722.0000,1.0000,2.0000,15.0000,1.0000,1.0000,2.5166,5.0000
166.0000,1.7637,611.0000,0.0000,0.0000,15.0000,1.0000,1.0000,2.7531,5.0000
156.0000,0.5687,777.0000,0.0000,2.0000,15.0000,1.0000,1.0000,2.4155,5.0000
252.0000,1.5129,626.0000,1.0000,0.0000,15.0000,1.0000,1.0000,2.6469,5.0000
165.0000,0.7292,659.0000,1.0000,2.0000,15.0000,1.0000,1.0000,2.5781,5.0000
204.0000,0.7451,783.0000,1.0000,1.0000,15.0000,1.0000,1.0000,2.3383,5.0000
274.0000,1.0896,1115.0000,0.0000,0.0000,15.0000,1.0000,1.0000,2.6712,5.0000
159.0000,1.3868,844.0000,0.0000,1.0000,15.0000,1.0000,1.0000,2.3182,5.0000
225.0000,-0.2599,1241.0000,0.0000,0.0000,15.0000,1.0000,1.0000,2.4906,5.0000
227.0000,0.4437,743.0000,1.0000,0.0000,15.0000,1.0000,1.0000,2.6444,5.0000
246.0000,0.4756,815.0000,1.0000,0.0000,15.0000,1.0000,1.0000,2.4519,5.0000
170.0000,1.9029,554.0000,0.0000,1.0000,15.0000,1.0000,1.0000,2.4217,5.0000
150.0000,1.0377,490.0000,1.0000,2.0000,15.0000,1.0000,1.0000,2.6252,5.0000
160.0000,1.2700,531.0000,0.0000,1.0000,15.0000,1.0000,1.0000,2.4353,5.0000
274.0000,0.0167,1151.0000,1.0000,2.0000,15.0000,1.0000,1.0000,2.6571,5.0000
150.0000,0.7859,1069.0000,0.0000,2.0000,15.0000,1.0000,1.0000,2.2381,5.0000
227.0000,0.5987,748.0000,1.0000,2.0000,15.0000,1.0000,1.0000,2.6286,5.0000
231.0000,0.3805,643.0000,1.0000,2.0000,15.0000,1.0000,1.0000,2.5388,5.0000
274.0000,1.2550,1057.0000,0.0000,0.0000,15.0000,1.0000,1.0000,2.5537,5.0000
161.0000,1.3289,592.0000,1.0000,1.0000,15.0000,1.0000,1.0000,2.5537,5.0000
154.0000,1.1274,509.0000,1.0000,2.0000,15.0000,1.0000,1.0000,2.5403,5.0000
157.0000,1.1573,563.0000,1.0000,1.0000,15.0000,1.0000,1.0000,2.5614,5.0000
153.0000,1.1676,935.0000,1.0000,2.0000,15.0000,1.0000,1.0000,2.5293,5.0000
160.0000,0.6231,570.0000,1.0000,2.0000,15.0000,1.0000,1.0000,2.5790,5.0000
224.0000,1.7728,548.0000,0.0000,1.0000,15.0000,1.0000,1.0000,2.4542,5.0000
150.0000,1.0485,628.0000,1.0000,2.0000,15.0000,1.0000,1.0000,2.5228,5.0000
211.0000,1.5976,1058.0000,1.0000,0.0000,15.0000,1.0000,1.0000,2.4228,5.0000
150.0000,0.7387,513.0000,0.0000,2.0000,15.0000,1.0000,1.0000,2.3838,5.0000
217.0000,1.3287,861.0000,1.0000,0.0000,15.0000,1.0000,1.0000,2.4600,5.0000
150.0000,0.6917,409.0000,1.0000,1.0000,15.0000,1.0000,1.0000,2.5760,5.0000
189.0000,0.5784,483.0000,1.0000,1.0000,15.0000,1.0000,1.0000,2.7019,5.0000
177.0000,0.3751,635.0000,0.0000,1.0000,15.0000,1.0000,1.0000,2.4724,5.0000
150.0000,0.9142,870.0000,1.0000,2.0000,15.0000,1.0000,1.0000,2.5950,5.0000
225.0000,2.0594,817.0000,1.0000,0.0000,15.0000,1.0000,1.0000,2.4035,5.0000
177.0000,0.6728,879.0000,1.0000,2.0000,15.0000,1.0000,1.0000,2.2719,5.0000
214.0000,1.4998,845.0000,0.0000,1.0000,15.0000,1.0000,1.0000,2.4784,5.0000
220.0000,0.6980,765.0000,0.0000,1.0000,15.0000,1.0000,1.0000,2.4723,5.0000
274.0000,1.7561,547.0000,1.0000,0.0000,15.0000,1.0000,1.0000,2.4025,5.0000
261.0000,1.5649,780.0000,1.0000,1.0000,15.0000,1.0000,1.0000,2.5651,5.0000
163.0000,0.9493,667.0000,1.0000,2.0000,15.0000,1.0000,1.0000,2.6085,5.0000
274.0000,1.2386,978.0000,1.0000,0.0000,15.0000,1.0000,1.0000,2.5361,5.0000
161.0000,0.8756,633.0000,1.0000,2.0000,15.0000,1.0000,1.0000,2.5583,5.0000
150.0000,1.1824,1084.0000,1.0000,2.0000,15.0000,1.0000,1.0000,2.4150,5.0000
210.0000,0.3318,801.0000,0.0000,1.0000,15.0000,1.0000,1.0000,2.5230,5.0000
150.0000,1.1919,824.0000,0.0000,2.0000,15.0000,1.0000,1.0000,2.4856,5.0000
218.0000,0.9111,678.0000,1.0000,1.0000,15.0000,1.0000,1.0000,2.5134,5.0000
274.0000,1.4326,585.0000,1.0000,0.0000,15.0000,1.0000,1.0000,2.3232,5.0000
254.0000,1.7281,853.0000,1.0000,0.0000,15.0000,1.0000,1.0000,2.4623,5.0000
224.0000,0.0487,912.0000,0.0000,1.0000,15.0000,1.0000,1.0000,2.4524,5.0000
216.0000,0.6300,626.0000,0.0000,1.0000,15.0000,1.0000,1.0000,2.4174,5.0000
216.0000,2.7080,545.0000,1.0000,0.0000,15.0000,1.0000,1.0000,2.4367,5.0000
265.0000,2.0850,1072.0000,1.0000,0.0000,15.0000,1.0000,1.0000,2.5213,5.0000
227.0000,2.3255,809.0000,1.0000,0.0000,15.0000,1.0000,1.0000,2.4667,5.0000
182.0000,0.4560,427.0000,1.0000,1.0000,15.0000,1.0000,1.0000,2.7411,5.0000
248.0000,1.2752,864.0000,1.0000,0.0000,15.0000,1.0000,1.0000,2.3506,5.0000
170.0000,1.0031,926.0000,0.0000,1.0000,15.0000,1.0000,1.0000,2.4369,5.0000
158.0000,0.8357,901.0000,1.0000,2.0000,15.0000,1.0000,1.0000,2.5740,5.0000
165.0000,1.2004,673.0000,1.0000,2.0000,15.0000,1.0000,1.0000,2.3226,5.0000
218.0000,1.1404,808.0000,1.0000,1.0000,15.0000,1.0000,1.0000,2.3191,5.0000
241.0000,1.1122,835.0000,1.0000,1.0000,15.0000,1.0000,1.0000,2.3269,5.0000
194.0000,3.7626,905.0000,0.0000,0.0000,15.0000,1.0000,1.0000,2.4854,5.0000
166.0000,1.6109,802.0000,1.0000,1.0000,15.0000,1.0000,1.0000,2.4765,5.0000
235.0000,2.2203,801.0000,0.0000,1.0000,15.0000,1.0000,1.0000,2.4846,5.0000
192.0000,1.7224,913.0000,1.0000,0.0000,15.0000,1.0000,1.0000,2.4725,5.0000
271.0000,0.6535,399.0000,0.0000,0.0000,15.0000,1.0000,1.0000,2.5741,5.0000
192.0000,2.0244,1053.0000,0.0000,0.0000,15.0000,1.0000,1.0000,2.6397,5.0000
230.0000,1.1235,774.0000,1.0000,0.0000,15.0000,1.0000,1.0000,2.4666,5.0000
181.0000,1.0800,505.0000,1.0000,1.0000,15.0000,1.0000,1.0000,2.5263,5.0000
162.0000,2.7634,515.0000,1.0000,1.0000,15.0000,1.0000,1.0000,2.6034,5.0000
202.0000,1.9713,774.0000,1.0000,1.0000,15.0000,1.0000,1.0000,2.4392,5.0000
183.0000,1.1118,1044.0000,0.0000,0.0000,15.0000,1.0000,1.0000,2.5736,5.0000
274.0000,2.0959,1215.0000,0.0000,0.0000,15.0000,1.0000,1.0000,2.3943,5.0000
240.0000,1.2915,1101.0000,1.0000,0.0000,15.0000,1.0000,1.0000,2.4683,5.0000
159.0000,1.8147,1127.0000,1.0000,1.0000,15.0000,1.0000,1.0000,2.6494,5.0000
157.0000,1.2870,1158.0000,1.0000,2.0000,15.0000,1.0000,1.0000,2.4773,5.0000
157.0000,1.5237,709.0000,1.0000,2.0000,15.0000,1.0000,1.0000,2.4492,5.0000
264.0000,0.5991,905.0000,1.0000,0.0000,15.0000,1.0000,1.0000,2.3268,5.0000
166.0000,1.3292,1228.0000,1.0000,1.0000,15.0000,1.0000,1.0000,2.5830,5.0000
162.0000,0.8293,991.0000,1.0000,2.0000,15.0000,1.0000,1.0000,2.3347,5.0000
