# Single-trial N200 latencies, N200 amplitudes, RT, Accuracy, SNR condition, EEG Session Counter, Experiment, Session, True Subject Index
220.0000,1.1649,1013.0000,1.0000,0.0000,0.0000,1.0000,1.0000,1.0000
156.0000,1.0073,639.0000,0.0000,2.0000,0.0000,1.0000,1.0000,1.0000
180.0000,1.5420,720.0000,0.0000,0.0000,0.0000,1.0000,1.0000,1.0000
170.0000,1.0598,674.0000,1.0000,2.0000,0.0000,1.0000,1.0000,1.0000
224.0000,1.0385,1265.0000,0.0000,1.0000,0.0000,1.0000,1.0000,1.0000
187.0000,0.7438,604.0000,1.0000,2.0000,0.0000,1.0000,1.0000,1.0000
174.0000,0.6089,581.0000,1.0000,2.0000,0.0000,1.0000,1.0000,1.0000
168.0000,1.4389,1346.0000,1.0000,0.0000,0.0000,1.0000,1.0000,1.0000
253.0000,2.2191,994.0000,1.0000,0.0000,0.0000,1.0000,1.0000,1.0000
250.0000,0.8072,1006.0000,0.0000,2.0000,0.0000,1.0000,1.0000,1.0000
172.0000,0.5250,898.0000,1.0000,2.0000,0.0000,1.0000,1.0000,1.0000
183.0000,1.2760,660.0000,0.0000,1.0000,0.0000,1.0000,1.0000,1.0000
191.0000,2.2372,835.0000,0.0000,0.0000,0.0000,1.0000,1.0000,1.0000
211.0000,2.4876,1160.0000,1.0000,0.0000,0.0000,1.0000,1.0000,1.0000
155.0000,1.6052,491.0000,1.0000,2.0000,0.0000,1.0000,1.0000,1.0000
210.0000,1.6156,726.0000,1.0000,0.0000,0.0000,1.0000,1.0000,1.0000
228.0000,0.5069,438.0000,1.0000,2.0000,0.0000,1.0000,1.0000,1.0000
250.0000,0.3249,726.0000,0.0000,0.0000,0.0000,1.0000,1.0000,1.0000
199.0000,0.2668,920.0000,1.0000,1.0000,0.0000,1.0000,1.0000,1.0000
225.0000,0.6677,608.0000,1.0000,1.0000,0.0000,1.0000,1.0000,1.0000
232.0000,0.2801,1102.0000,0.0000,1.0000,0.0000,1.0000,1.0000,1.0000
152.0000,0.7271,675.0000,0.0000,2.0000,0.0000,1.0000,1.0000,1.0000
237.0000,2.1507,755.0000,0.0000,1.0000,0.0000,1.0000,1.0000,1.0000
198.0000,3.4475,958.0000,0.0000,0.0000,0.0000,1.0000,1.0000,1.0000
193.0000,0.3644,814.0000,1.0000,2.0000,0.0000,1.0000,1.0000,1.0000
167.0000,1.7038,775.0000,0.0000,2.0000,0.0000,1.0000,1.0000,1.0000
207.0000,0.9445,556.0000,0.0000,1.0000,0.0000,1.0000,1.0000,1.0000
204.0000,1.8561,614.0000,1.0000,1.0000,0.0000,1.0000,1.0000,1.0000
195.0000,1.7274,769.0000,1.0000,1.0000,0.0000,1.0000,1.0000,1.0000
211.0000,1.3285,730.0000,1.0000,1.0000,0.0000,1.0000,1.0000,1.0000
185.0000,0.8495,530.0000,1.0000,2.0000,0.0000,1.0000,1.0000,1.0000
164.0000,0.2619,916.0000,1.0000,2.0000,0.0000,1.0000,1.0000,1.0000
172.0000,1.6604,620.0000,1.0000,2.0000,0.0000,1.0000,1.0000,1.0000
190.0000,1.2224,1063.0000,1.0000,1.0000,0.0000,1.0000,1.0000,1.0000
187.0000,0.9902,619.0000,1.0000,0.0000,0.0000,1.0000,1.0000,1.0000
170.0000,0.9451,709.0000,0.0000,2.0000,0.0000,1.0000,1.0000,1.0000
184.0000,1.3474,583.0000,1.0000,2.0000,0.0000,1.0000,1.0000,1.0000
195.0000,1.1663,576.0000,1.0000,1.0000,0.0000,1.0000,1.0000,1.0000
168.0000,1.1637,643.0000,1.0000,1.0000,0.0000,1.0000,1.0000,1.0000
166.0000,1.4622,945.0000,1.0000,2.0000,0.0000,1.0000,1.0000,1.0000
206.0000,0.6286,897.0000,1.0000,1.0000,0.0000,1.0000,1.0000,1.0000
214.0000,1.8675,1244.0000,0.0000,1.0000,0.0000,1.0000,1.0000,1.0000
165.0000,2.3027,799.0000,1.0000,1.0000,0.0000,1.0000,1.0000,1.0000
197.0000,1.7748,887.0000,1.0000,1.0000,0.0000,1.0000,1.0000,1.0000
181.0000,1.0162,615.0000,1.0000,2.0000,0.0000,1.0000,1.0000,1.0000
150.0000,-0.5206,1238.0000,0.0000,0.0000,0.0000,1.0000,1.0000,1.0000
238.0000,4.7835,925.0000,0.0000,0.0000,0.0000,1.0000,1.0000,1.0000
177.0000,1.4736,966.0000,0.0000,1.0000,0.0000,1.0000,1.0000,1.0000
205.0000,0.5748,869.0000,1.0000,1.0000,0.0000,1.0000,1.0000,1.0000
171.0000,1.4464,1125.0000,0.0000,2.0000,0.0000,1.0000,1.0000,1.0000
173.0000,1.1153,594.0000,1.0000,2.0000,0.0000,1.0000,1.0000,1.0000
233.0000,1.8466,1339.0000,0.0000,0.0000,0.0000,1.0000,1.0000,1.0000
229.0000,1.5134,1057.0000,0.0000,1.0000,0.0000,1.0000,1.0000,1.0000
221.0000,-0.0051,899.0000,0.0000,0.0000,0.0000,1.0000,1.0000,1.0000
190.0000,1.1522,950.0000,0.0000,1.0000,0.0000,1.0000,1.0000,1.0000
244.0000,1.6086,1295.0000,0.0000,0.0000,0.0000,1.0000,1.0000,1.0000
150.0000,-0.8918,1220.0000,0.0000,0.0000,0.0000,1.0000,1.0000,1.0000
165.0000,2.2551,626.0000,1.0000,2.0000,0.0000,1.0000,1.0000,1.0000
210.0000,1.3760,563.0000,1.0000,1.0000,0.0000,1.0000,1.0000,1.0000
206.0000,0.7370,627.0000,1.0000,2.0000,0.0000,1.0000,1.0000,1.0000
165.0000,1.0382,1193.0000,1.0000,2.0000,0.0000,1.0000,1.0000,1.0000
192.0000,1.0622,1121.0000,1.0000,1.0000,0.0000,1.0000,1.0000,1.0000
232.0000,1.3816,1539.0000,0.0000,1.0000,0.0000,1.0000,1.0000,1.0000
270.0000,0.8515,1355.0000,1.0000,0.0000,0.0000,1.0000,1.0000,1.0000
170.0000,1.4534,603.0000,1.0000,2.0000,0.0000,1.0000,1.0000,1.0000
176.0000,1.8678,1328.0000,0.0000,2.0000,0.0000,1.0000,1.0000,1.0000
229.0000,2.7721,828.0000,1.0000,0.0000,0.0000,1.0000,1.0000,1.0000
179.0000,0.7784,628.0000,0.0000,2.0000,0.0000,1.0000,1.0000,1.0000
271.0000,0.1951,1463.0000,1.0000,0.0000,0.0000,1.0000,1.0000,1.0000
225.0000,1.7128,604.0000,1.0000,1.0000,0.0000,1.0000,1.0000,1.0000
167.0000,1.5109,532.0000,1.0000,2.0000,0.0000,1.0000,1.0000,1.0000
158.0000,1.1486,479.0000,1.0000,2.0000,0.0000,1.0000,1.0000,1.0000
207.0000,0.5717,713.0000,1.0000,1.0000,0.0000,1.0000,1.0000,1.0000
206.0000,1.7331,665.0000,1.0000,1.0000,0.0000,1.0000,1.0000,1.0000
203.0000,1.4644,533.0000,0.0000,1.0000,0.0000,1.0000,1.0000,1.0000
178.0000,1.1201,699.0000,1.0000,2.0000,0.0000,1.0000,1.0000,1.0000
260.0000,1.2188,738.0000,0.0000,0.0000,0.0000,1.0000,1.0000,1.0000
174.0000,1.1853,566.0000,1.0000,2.0000,0.0000,1.0000,1.0000,1.0000
166.0000,0.7468,519.0000,1.0000,2.0000,0.0000,1.0000,1.0000,1.0000
189.0000,2.1668,473.0000,1.0000,1.0000,0.0000,1.0000,1.0000,1.0000
190.0000,0.3059,530.0000,1.0000,1.0000,0.0000,1.0000,1.0000,1.0000
167.0000,0.5529,359.0000,1.0000,2.0000,0.0000,1.0000,1.0000,1.0000
263.0000,1.7188,617.0000,1.0000,0.0000,0.0000,1.0000,1.0000,1.0000
211.0000,3.1810,590.0000,1.0000,0.0000,0.0000,1.0000,1.0000,1.0000
163.0000,0.6012,488.0000,1.0000,2.0000,0.0000,1.0000,1.0000,1.0000
222.0000,0.4391,733.0000,1.0000,1.0000,0.0000,1.0000,1.0000,1.0000
182.0000,0.8152,665.0000,1.0000,2.0000,0.0000,1.0000,1.0000,1.0000
165.0000,0.7532,551.0000,1.0000,2.0000,0.0000,1.0000,1.0000,1.0000
186.0000,1.5911,702.0000,0.0000,2.0000,0.0000,1.0000,1.0000,1.0000
235.0000,-0.6931,1140.0000,0.0000,0.0000,0.0000,1.0000,1.0000,1.0000
204.0000,0.9006,715.0000,1.0000,1.0000,0.0000,1.0000,1.0000,1.0000
221.0000,1.6593,1397.0000,1.0000,1.0000,0.0000,1.0000,1.0000,1.0000
248.0000,1.1852,804.0000,0.0000,1.0000,0.0000,1.0000,1.0000,1.0000
237.0000,4.3739,535.0000,1.0000,0.0000,0.0000,1.0000,1.0000,1.0000
185.0000,0.8098,839.0000,0.0000,1.0000,0.0000,1.0000,1.0000,1.0000
196.0000,1.2339,729.0000,0.0000,2.0000,0.0000,1.0000,1.0000,1.0000
166.0000,1.1884,359.0000,1.0000,2.0000,0.0000,1.0000,1.0000,1.0000
166.0000,1.4076,772.0000,0.0000,2.0000,0.0000,1.0000,1.0000,1.0000
247.0000,3.5714,592.0000,1.0000,0.0000,0.0000,1.0000,1.0000,1.0000
261.0000,1.6222,676.0000,0.0000,0.0000,0.0000,1.0000,1.0000,1.0000
186.0000,1.4561,574.0000,1.0000,2.0000,0.0000,1.0000,1.0000,1.0000
212.0000,1.2305,576.0000,1.0000,1.0000,0.0000,1.0000,1.0000,1.0000
256.0000,3.1567,1073.0000,0.0000,0.0000,0.0000,1.0000,1.0000,1.0000
194.0000,0.6229,908.0000,1.0000,1.0000,0.0000,1.0000,1.0000,1.0000
259.0000,1.2395,573.0000,1.0000,0.0000,0.0000,1.0000,1.0000,1.0000
150.0000,1.7037,1264.0000,1.0000,2.0000,0.0000,1.0000,1.0000,1.0000
150.0000,0.9440,599.0000,1.0000,2.0000,0.0000,1.0000,1.0000,1.0000
260.0000,1.7442,481.0000,1.0000,1.0000,0.0000,1.0000,1.0000,1.0000
185.0000,1.6112,597.0000,1.0000,1.0000,0.0000,1.0000,1.0000,1.0000
183.0000,0.9477,672.0000,1.0000,2.0000,0.0000,1.0000,1.0000,1.0000
237.0000,1.4088,949.0000,1.0000,0.0000,0.0000,1.0000,1.0000,1.0000
208.0000,1.5266,763.0000,1.0000,1.0000,0.0000,1.0000,1.0000,1.0000
231.0000,1.1186,1016.0000,1.0000,0.0000,0.0000,1.0000,1.0000,1.0000
183.0000,0.1298,1142.0000,1.0000,1.0000,0.0000,1.0000,1.0000,1.0000
198.0000,1.3491,557.0000,1.0000,1.0000,0.0000,1.0000,1.0000,1.0000
193.0000,0.8523,740.0000,0.0000,1.0000,0.0000,1.0000,1.0000,1.0000
214.0000,1.4824,814.0000,1.0000,1.0000,0.0000,1.0000,1.0000,1.0000
229.0000,0.9032,1013.0000,0.0000,0.0000,0.0000,1.0000,1.0000,1.0000
219.0000,0.4915,1094.0000,0.0000,0.0000,0.0000,1.0000,1.0000,1.0000
247.0000,3.2690,1194.0000,0.0000,0.0000,0.0000,1.0000,1.0000,1.0000
163.0000,0.2735,1083.0000,1.0000,2.0000,0.0000,1.0000,1.0000,1.0000
272.0000,1.7790,891.0000,1.0000,0.0000,0.0000,1.0000,1.0000,1.0000
172.0000,0.5194,798.0000,1.0000,1.0000,0.0000,1.0000,1.0000,1.0000
220.0000,2.9047,678.0000,1.0000,0.0000,0.0000,1.0000,1.0000,1.0000
202.0000,0.7103,747.0000,1.0000,1.0000,0.0000,1.0000,1.0000,1.0000
234.0000,0.9415,642.0000,1.0000,1.0000,0.0000,1.0000,1.0000,1.0000
212.0000,1.0849,572.0000,1.0000,1.0000,0.0000,1.0000,1.0000,1.0000
204.0000,2.3252,981.0000,1.0000,0.0000,0.0000,1.0000,1.0000,1.0000
226.0000,1.6309,788.0000,1.0000,0.0000,0.0000,1.0000,1.0000,1.0000
167.0000,0.8056,645.0000,1.0000,2.0000,0.0000,1.0000,1.0000,1.0000
183.0000,1.4084,493.0000,1.0000,2.0000,0.0000,1.0000,1.0000,1.0000
165.0000,1.3045,921.0000,0.0000,2.0000,0.0000,1.0000,1.0000,1.0000
238.0000,0.1394,671.0000,1.0000,0.0000,0.0000,1.0000,1.0000,1.0000
200.0000,1.5984,683.0000,1.0000,1.0000,0.0000,1.0000,1.0000,1.0000
170.0000,1.0392,1433.0000,0.0000,2.0000,0.0000,1.0000,1.0000,1.0000
165.0000,1.0447,962.0000,1.0000,2.0000,0.0000,1.0000,1.0000,1.0000
194.0000,1.2545,934.0000,1.0000,2.0000,0.0000,1.0000,1.0000,1.0000
254.0000,0.5045,609.0000,0.0000,0.0000,0.0000,1.0000,1.0000,1.0000
182.0000,2.6097,628.0000,0.0000,0.0000,0.0000,1.0000,1.0000,1.0000
170.0000,1.3861,952.0000,1.0000,2.0000,0.0000,1.0000,1.0000,1.0000
260.0000,1.3893,850.0000,0.0000,0.0000,0.0000,1.0000,1.0000,1.0000
174.0000,1.1771,1631.0000,0.0000,2.0000,0.0000,1.0000,1.0000,1.0000
266.0000,1.4970,1238.0000,0.0000,0.0000,0.0000,1.0000,1.0000,1.0000
196.0000,1.0672,560.0000,1.0000,1.0000,0.0000,1.0000,1.0000,1.0000
158.0000,1.3555,507.0000,1.0000,2.0000,0.0000,1.0000,1.0000,1.0000
165.0000,1.6469,1088.0000,1.0000,1.0000,1.0000,1.0000,2.0000,1.0000
176.0000,0.6860,584.0000,1.0000,2.0000,1.0000,1.0000,2.0000,1.0000
179.0000,0.8229,851.0000,0.0000,2.0000,1.0000,1.0000,2.0000,1.0000
168.0000,0.9542,925.0000,1.0000,1.0000,1.0000,1.0000,2.0000,1.0000
173.0000,1.3905,870.0000,1.0000,1.0000,1.0000,1.0000,2.0000,1.0000
181.0000,0.8553,674.0000,0.0000,1.0000,1.0000,1.0000,2.0000,1.0000
255.0000,1.9041,543.0000,0.0000,0.0000,1.0000,1.0000,2.0000,1.0000
262.0000,1.2276,706.0000,1.0000,0.0000,1.0000,1.0000,2.0000,1.0000
188.0000,1.4113,503.0000,1.0000,1.0000,1.0000,1.0000,2.0000,1.0000
155.0000,0.1326,551.0000,0.0000,0.0000,1.0000,1.0000,2.0000,1.0000
179.0000,0.0426,456.0000,0.0000,2.0000,1.0000,1.0000,2.0000,1.0000
200.0000,1.3583,557.0000,1.0000,0.0000,1.0000,1.0000,2.0000,1.0000
174.0000,0.2722,746.0000,1.0000,2.0000,1.0000,1.0000,2.0000,1.0000
197.0000,0.2179,839.0000,1.0000,0.0000,1.0000,1.0000,2.0000,1.0000
273.0000,1.1152,696.0000,1.0000,0.0000,1.0000,1.0000,2.0000,1.0000
184.0000,1.3999,472.0000,0.0000,1.0000,1.0000,1.0000,2.0000,1.0000
162.0000,1.3705,877.0000,0.0000,2.0000,1.0000,1.0000,2.0000,1.0000
207.0000,0.5143,760.0000,0.0000,0.0000,1.0000,1.0000,2.0000,1.0000
170.0000,0.7067,799.0000,1.0000,1.0000,1.0000,1.0000,2.0000,1.0000
241.0000,1.6678,796.0000,1.0000,0.0000,1.0000,1.0000,2.0000,1.0000
150.0000,0.2454,1392.0000,0.0000,2.0000,1.0000,1.0000,2.0000,1.0000
181.0000,1.1985,740.0000,1.0000,2.0000,1.0000,1.0000,2.0000,1.0000
174.0000,0.7630,1157.0000,1.0000,2.0000,1.0000,1.0000,2.0000,1.0000
171.0000,0.8915,551.0000,0.0000,2.0000,1.0000,1.0000,2.0000,1.0000
171.0000,1.5406,482.0000,1.0000,1.0000,1.0000,1.0000,2.0000,1.0000
235.0000,1.9379,720.0000,0.0000,0.0000,1.0000,1.0000,2.0000,1.0000
204.0000,0.4947,485.0000,1.0000,1.0000,1.0000,1.0000,2.0000,1.0000
157.0000,1.2462,335.0000,1.0000,2.0000,1.0000,1.0000,2.0000,1.0000
212.0000,1.1289,722.0000,1.0000,1.0000,1.0000,1.0000,2.0000,1.0000
174.0000,1.7296,481.0000,1.0000,2.0000,1.0000,1.0000,2.0000,1.0000
207.0000,1.9549,578.0000,1.0000,1.0000,1.0000,1.0000,2.0000,1.0000
193.0000,0.8418,444.0000,0.0000,2.0000,1.0000,1.0000,2.0000,1.0000
202.0000,1.1462,656.0000,1.0000,0.0000,1.0000,1.0000,2.0000,1.0000
273.0000,1.5801,736.0000,1.0000,0.0000,1.0000,1.0000,2.0000,1.0000
191.0000,0.8269,749.0000,1.0000,0.0000,1.0000,1.0000,2.0000,1.0000
165.0000,1.6841,803.0000,1.0000,2.0000,1.0000,1.0000,2.0000,1.0000
213.0000,0.1167,964.0000,1.0000,1.0000,1.0000,1.0000,2.0000,1.0000
259.0000,1.9641,599.0000,0.0000,0.0000,1.0000,1.0000,2.0000,1.0000
150.0000,0.8462,795.0000,1.0000,0.0000,1.0000,1.0000,2.0000,1.0000
174.0000,1.1400,552.0000,1.0000,2.0000,1.0000,1.0000,2.0000,1.0000
250.0000,-0.3203,607.0000,0.0000,0.0000,1.0000,1.0000,2.0000,1.0000
192.0000,1.0543,893.0000,1.0000,1.0000,1.0000,1.0000,2.0000,1.0000
244.0000,-0.0185,1052.0000,1.0000,0.0000,1.0000,1.0000,2.0000,1.0000
178.0000,0.9379,382.0000,1.0000,2.0000,1.0000,1.0000,2.0000,1.0000
175.0000,1.8177,1140.0000,1.0000,1.0000,1.0000,1.0000,2.0000,1.0000
169.0000,1.1896,1151.0000,0.0000,2.0000,1.0000,1.0000,2.0000,1.0000
230.0000,2.7058,977.0000,1.0000,0.0000,1.0000,1.0000,2.0000,1.0000
171.0000,1.0135,424.0000,1.0000,2.0000,1.0000,1.0000,2.0000,1.0000
205.0000,1.4469,478.0000,1.0000,1.0000,1.0000,1.0000,2.0000,1.0000
256.0000,0.8570,596.0000,1.0000,1.0000,1.0000,1.0000,2.0000,1.0000
232.0000,0.4376,1078.0000,1.0000,0.0000,1.0000,1.0000,2.0000,1.0000
173.0000,0.7390,399.0000,1.0000,2.0000,1.0000,1.0000,2.0000,1.0000
170.0000,1.4373,726.0000,1.0000,2.0000,1.0000,1.0000,2.0000,1.0000
171.0000,1.3679,1143.0000,0.0000,1.0000,1.0000,1.0000,2.0000,1.0000
166.0000,0.6572,673.0000,0.0000,2.0000,1.0000,1.0000,2.0000,1.0000
258.0000,1.6327,922.0000,1.0000,0.0000,1.0000,1.0000,2.0000,1.0000
167.0000,0.3250,589.0000,1.0000,2.0000,1.0000,1.0000,2.0000,1.0000
235.0000,1.1183,784.0000,0.0000,1.0000,1.0000,1.0000,2.0000,1.0000
227.0000,-0.2243,862.0000,1.0000,1.0000,1.0000,1.0000,2.0000,1.0000
180.0000,0.9797,555.0000,1.0000,1.0000,1.0000,1.0000,2.0000,1.0000
241.0000,0.0046,1033.0000,1.0000,0.0000,1.0000,1.0000,2.0000,1.0000
172.0000,0.8039,713.0000,1.0000,1.0000,1.0000,1.0000,2.0000,1.0000
237.0000,3.0963,689.0000,0.0000,0.0000,1.0000,1.0000,2.0000,1.0000
206.0000,2.0051,944.0000,0.0000,1.0000,1.0000,1.0000,2.0000,1.0000
183.0000,2.2233,433.0000,1.0000,1.0000,1.0000,1.0000,2.0000,1.0000
217.0000,2.0038,688.0000,1.0000,0.0000,1.0000,1.0000,2.0000,1.0000
171.0000,2.0419,619.0000,1.0000,1.0000,1.0000,1.0000,2.0000,1.0000
208.0000,0.3525,680.0000,1.0000,0.0000,1.0000,1.0000,2.0000,1.0000
154.0000,0.2672,615.0000,0.0000,2.0000,1.0000,1.0000,2.0000,1.0000
180.0000,0.5768,670.0000,0.0000,2.0000,1.0000,1.0000,2.0000,1.0000
157.0000,1.8770,561.0000,0.0000,2.0000,1.0000,1.0000,2.0000,1.0000
198.0000,0.7400,734.0000,1.0000,1.0000,1.0000,1.0000,2.0000,1.0000
194.0000,1.4445,611.0000,0.0000,1.0000,1.0000,1.0000,2.0000,1.0000
220.0000,1.5298,966.0000,0.0000,0.0000,1.0000,1.0000,2.0000,1.0000
165.0000,1.2953,819.0000,1.0000,2.0000,1.0000,1.0000,2.0000,1.0000
229.0000,1.3411,785.0000,0.0000,0.0000,1.0000,1.0000,2.0000,1.0000
177.0000,1.0966,858.0000,1.0000,2.0000,1.0000,1.0000,2.0000,1.0000
251.0000,2.3294,977.0000,0.0000,0.0000,1.0000,1.0000,2.0000,1.0000
180.0000,1.9711,1137.0000,1.0000,2.0000,1.0000,1.0000,2.0000,1.0000
194.0000,0.9332,687.0000,1.0000,1.0000,1.0000,1.0000,2.0000,1.0000
160.0000,1.1494,762.0000,0.0000,2.0000,1.0000,1.0000,2.0000,1.0000
167.0000,1.4593,745.0000,1.0000,2.0000,1.0000,1.0000,2.0000,1.0000
232.0000,1.8193,741.0000,0.0000,0.0000,1.0000,1.0000,2.0000,1.0000
177.0000,1.1387,659.0000,1.0000,1.0000,1.0000,1.0000,2.0000,1.0000
207.0000,1.6777,945.0000,0.0000,1.0000,1.0000,1.0000,2.0000,1.0000
175.0000,1.8826,766.0000,1.0000,0.0000,1.0000,1.0000,2.0000,1.0000
172.0000,1.1633,834.0000,0.0000,2.0000,1.0000,1.0000,2.0000,1.0000
215.0000,0.9536,1045.0000,1.0000,0.0000,1.0000,1.0000,2.0000,1.0000
165.0000,1.3436,516.0000,1.0000,2.0000,1.0000,1.0000,2.0000,1.0000
249.0000,1.0516,598.0000,1.0000,0.0000,1.0000,1.0000,2.0000,1.0000
240.0000,0.6007,676.0000,0.0000,0.0000,1.0000,1.0000,2.0000,1.0000
159.0000,2.1299,417.0000,1.0000,2.0000,1.0000,1.0000,2.0000,1.0000
171.0000,1.9358,629.0000,1.0000,2.0000,1.0000,1.0000,2.0000,1.0000
164.0000,1.4099,668.0000,1.0000,2.0000,1.0000,1.0000,2.0000,1.0000
172.0000,1.2499,663.0000,1.0000,1.0000,1.0000,1.0000,2.0000,1.0000
165.0000,1.4058,638.0000,0.0000,1.0000,1.0000,1.0000,2.0000,1.0000
167.0000,0.6778,779.0000,1.0000,2.0000,1.0000,1.0000,2.0000,1.0000
178.0000,2.4205,806.0000,0.0000,1.0000,1.0000,1.0000,2.0000,1.0000
230.0000,1.3602,645.0000,1.0000,1.0000,1.0000,1.0000,2.0000,1.0000
165.0000,1.1149,648.0000,1.0000,2.0000,1.0000,1.0000,2.0000,1.0000
198.0000,0.5859,801.0000,0.0000,1.0000,1.0000,1.0000,2.0000,1.0000
215.0000,1.8553,1234.0000,1.0000,0.0000,1.0000,1.0000,2.0000,1.0000
176.0000,1.2003,625.0000,1.0000,1.0000,1.0000,1.0000,2.0000,1.0000
218.0000,1.1798,601.0000,1.0000,0.0000,1.0000,1.0000,2.0000,1.0000
164.0000,0.8537,770.0000,0.0000,2.0000,1.0000,1.0000,2.0000,1.0000
214.0000,1.5640,573.0000,1.0000,1.0000,1.0000,1.0000,2.0000,1.0000
174.0000,1.7888,562.0000,1.0000,2.0000,1.0000,1.0000,2.0000,1.0000
232.0000,2.8073,741.0000,1.0000,0.0000,1.0000,1.0000,2.0000,1.0000
219.0000,2.1987,623.0000,1.0000,0.0000,1.0000,1.0000,2.0000,1.0000
212.0000,1.3753,609.0000,1.0000,1.0000,1.0000,1.0000,2.0000,1.0000
150.0000,0.8619,695.0000,1.0000,0.0000,1.0000,1.0000,2.0000,1.0000
217.0000,2.0144,992.0000,0.0000,1.0000,1.0000,1.0000,2.0000,1.0000
204.0000,1.9137,592.0000,1.0000,1.0000,1.0000,1.0000,2.0000,1.0000
171.0000,1.1507,1048.0000,1.0000,2.0000,1.0000,1.0000,2.0000,1.0000
197.0000,0.9708,873.0000,0.0000,1.0000,1.0000,1.0000,2.0000,1.0000
170.0000,1.7409,652.0000,0.0000,2.0000,1.0000,1.0000,2.0000,1.0000
180.0000,1.3034,562.0000,1.0000,1.0000,1.0000,1.0000,2.0000,1.0000
173.0000,1.4843,516.0000,1.0000,1.0000,1.0000,1.0000,2.0000,1.0000
247.0000,1.8122,790.0000,0.0000,0.0000,1.0000,1.0000,2.0000,1.0000
179.0000,1.0513,680.0000,1.0000,2.0000,1.0000,1.0000,2.0000,1.0000
213.0000,2.9582,517.0000,1.0000,1.0000,1.0000,1.0000,2.0000,1.0000
154.0000,1.5702,839.0000,0.0000,2.0000,1.0000,1.0000,2.0000,1.0000
268.0000,0.6084,908.0000,1.0000,1.0000,1.0000,1.0000,2.0000,1.0000
150.0000,1.3576,806.0000,1.0000,0.0000,1.0000,1.0000,2.0000,1.0000
272.0000,1.6779,843.0000,1.0000,0.0000,1.0000,1.0000,2.0000,1.0000
193.0000,1.4207,702.0000,1.0000,1.0000,1.0000,1.0000,2.0000,1.0000
157.0000,2.0474,627.0000,1.0000,2.0000,1.0000,1.0000,2.0000,1.0000
179.0000,1.7337,688.0000,1.0000,2.0000,1.0000,1.0000,2.0000,1.0000
166.0000,1.0269,617.0000,1.0000,2.0000,1.0000,1.0000,2.0000,1.0000
186.0000,1.4443,566.0000,1.0000,1.0000,1.0000,1.0000,2.0000,1.0000
223.0000,3.0769,1286.0000,1.0000,0.0000,1.0000,1.0000,2.0000,1.0000
166.0000,0.8559,716.0000,1.0000,2.0000,1.0000,1.0000,2.0000,1.0000
150.0000,0.1877,841.0000,0.0000,2.0000,1.0000,1.0000,2.0000,1.0000
245.0000,1.4060,988.0000,0.0000,0.0000,1.0000,1.0000,2.0000,1.0000
159.0000,0.9926,696.0000,1.0000,1.0000,1.0000,1.0000,2.0000,1.0000
202.0000,1.8872,1015.0000,1.0000,1.0000,1.0000,1.0000,2.0000,1.0000
248.0000,1.4807,664.0000,1.0000,1.0000,1.0000,1.0000,2.0000,1.0000
222.0000,0.0930,793.0000,1.0000,0.0000,1.0000,1.0000,2.0000,1.0000
250.0000,3.1740,688.0000,0.0000,0.0000,1.0000,1.0000,2.0000,1.0000
180.0000,1.9260,493.0000,1.0000,2.0000,1.0000,1.0000,2.0000,1.0000
227.0000,1.6587,937.0000,0.0000,1.0000,9.0000,1.0000,1.0000,2.0000
152.0000,1.0170,937.0000,1.0000,2.0000,9.0000,1.0000,1.0000,2.0000
237.0000,0.2862,707.0000,1.0000,2.0000,9.0000,1.0000,1.0000,2.0000
231.0000,1.0389,642.0000,1.0000,1.0000,9.0000,1.0000,1.0000,2.0000
151.0000,1.9439,582.0000,1.0000,1.0000,9.0000,1.0000,1.0000,2.0000
213.0000,2.3133,785.0000,0.0000,1.0000,9.0000,1.0000,1.0000,2.0000
163.0000,0.6669,1001.0000,0.0000,2.0000,9.0000,1.0000,1.0000,2.0000
191.0000,0.6153,946.0000,1.0000,0.0000,9.0000,1.0000,1.0000,2.0000
150.0000,3.2913,985.0000,0.0000,0.0000,9.0000,1.0000,1.0000,2.0000
157.0000,0.2186,944.0000,1.0000,1.0000,9.0000,1.0000,1.0000,2.0000
150.0000,0.3396,667.0000,0.0000,2.0000,9.0000,1.0000,1.0000,2.0000
219.0000,2.6135,1674.0000,1.0000,0.0000,9.0000,1.0000,1.0000,2.0000
204.0000,-0.4809,608.0000,1.0000,1.0000,9.0000,1.0000,1.0000,2.0000
231.0000,2.0031,442.0000,0.0000,1.0000,9.0000,1.0000,1.0000,2.0000
150.0000,0.0285,742.0000,0.0000,1.0000,9.0000,1.0000,1.0000,2.0000
165.0000,2.0400,566.0000,0.0000,2.0000,9.0000,1.0000,1.0000,2.0000
217.0000,2.5931,778.0000,1.0000,1.0000,9.0000,1.0000,1.0000,2.0000
248.0000,1.2012,795.0000,1.0000,0.0000,9.0000,1.0000,1.0000,2.0000
151.0000,-0.3555,836.0000,0.0000,2.0000,9.0000,1.0000,1.0000,2.0000
211.0000,-1.0948,823.0000,0.0000,0.0000,9.0000,1.0000,1.0000,2.0000
153.0000,0.8750,571.0000,1.0000,2.0000,9.0000,1.0000,1.0000,2.0000
234.0000,2.0809,676.0000,0.0000,1.0000,9.0000,1.0000,1.0000,2.0000
221.0000,0.2891,935.0000,1.0000,1.0000,9.0000,1.0000,1.0000,2.0000
178.0000,1.0414,511.0000,1.0000,2.0000,9.0000,1.0000,1.0000,2.0000
248.0000,0.3154,776.0000,0.0000,1.0000,9.0000,1.0000,1.0000,2.0000
150.0000,1.6280,927.0000,0.0000,1.0000,9.0000,1.0000,1.0000,2.0000
160.0000,1.0437,621.0000,0.0000,2.0000,9.0000,1.0000,1.0000,2.0000
187.0000,2.7765,1230.0000,0.0000,1.0000,9.0000,1.0000,1.0000,2.0000
173.0000,1.2266,555.0000,1.0000,2.0000,9.0000,1.0000,1.0000,2.0000
169.0000,1.6040,599.0000,0.0000,1.0000,9.0000,1.0000,1.0000,2.0000
198.0000,-0.7613,638.0000,0.0000,1.0000,9.0000,1.0000,1.0000,2.0000
209.0000,-0.0951,1155.0000,1.0000,0.0000,9.0000,1.0000,1.0000,2.0000
150.0000,2.5344,581.0000,0.0000,1.0000,9.0000,1.0000,1.0000,2.0000
196.0000,0.3043,920.0000,1.0000,1.0000,9.0000,1.0000,1.0000,2.0000
150.0000,1.7306,999.0000,1.0000,0.0000,9.0000,1.0000,1.0000,2.0000
150.0000,1.1517,834.0000,0.0000,1.0000,9.0000,1.0000,1.0000,2.0000
150.0000,1.2551,632.0000,1.0000,2.0000,9.0000,1.0000,1.0000,2.0000
203.0000,2.0842,766.0000,1.0000,0.0000,9.0000,1.0000,1.0000,2.0000
196.0000,0.3224,859.0000,1.0000,2.0000,9.0000,1.0000,1.0000,2.0000
244.0000,1.6167,774.0000,0.0000,1.0000,9.0000,1.0000,1.0000,2.0000
215.0000,1.2578,760.0000,0.0000,1.0000,9.0000,1.0000,1.0000,2.0000
150.0000,1.2801,998.0000,0.0000,2.0000,9.0000,1.0000,1.0000,2.0000
238.0000,2.8082,695.0000,0.0000,0.0000,9.0000,1.0000,1.0000,2.0000
170.0000,1.4615,610.0000,1.0000,2.0000,9.0000,1.0000,1.0000,2.0000
159.0000,2.5440,568.0000,1.0000,2.0000,9.0000,1.0000,1.0000,2.0000
266.0000,1.0756,992.0000,0.0000,0.0000,9.0000,1.0000,1.0000,2.0000
191.0000,-0.1311,886.0000,1.0000,1.0000,9.0000,1.0000,1.0000,2.0000
163.0000,1.4729,530.0000,1.0000,2.0000,9.0000,1.0000,1.0000,2.0000
164.0000,2.3755,802.0000,0.0000,1.0000,9.0000,1.0000,1.0000,2.0000
155.0000,1.7343,607.0000,1.0000,2.0000,9.0000,1.0000,1.0000,2.0000
150.0000,0.6308,1088.0000,1.0000,2.0000,9.0000,1.0000,1.0000,2.0000
177.0000,1.8848,686.0000,0.0000,0.0000,9.0000,1.0000,1.0000,2.0000
217.0000,1.9880,750.0000,1.0000,2.0000,9.0000,1.0000,1.0000,2.0000
214.0000,1.2910,818.0000,1.0000,1.0000,9.0000,1.0000,1.0000,2.0000
180.0000,4.2183,494.0000,0.0000,0.0000,9.0000,1.0000,1.0000,2.0000
194.0000,1.1758,896.0000,1.0000,0.0000,9.0000,1.0000,1.0000,2.0000
196.0000,1.4458,644.0000,1.0000,2.0000,9.0000,1.0000,1.0000,2.0000
180.0000,3.7452,993.0000,1.0000,0.0000,9.0000,1.0000,1.0000,2.0000
157.0000,1.2043,495.0000,1.0000,2.0000,9.0000,1.0000,1.0000,2.0000
181.0000,3.2679,1064.0000,1.0000,1.0000,9.0000,1.0000,1.0000,2.0000
151.0000,0.7567,843.0000,1.0000,2.0000,9.0000,1.0000,1.0000,2.0000
177.0000,1.7190,709.0000,1.0000,1.0000,9.0000,1.0000,1.0000,2.0000
224.0000,1.4727,817.0000,1.0000,0.0000,9.0000,1.0000,1.0000,2.0000
263.0000,5.6609,653.0000,0.0000,0.0000,9.0000,1.0000,1.0000,2.0000
224.0000,1.3473,940.0000,1.0000,1.0000,9.0000,1.0000,1.0000,2.0000
256.0000,0.8602,948.0000,0.0000,2.0000,9.0000,1.0000,1.0000,2.0000
253.0000,4.1253,1085.0000,0.0000,0.0000,9.0000,1.0000,1.0000,2.0000
155.0000,0.5863,720.0000,0.0000,2.0000,9.0000,1.0000,1.0000,2.0000
251.0000,1.1125,886.0000,0.0000,2.0000,9.0000,1.0000,1.0000,2.0000
230.0000,0.7789,712.0000,1.0000,1.0000,9.0000,1.0000,1.0000,2.0000
156.0000,0.8873,483.0000,1.0000,2.0000,9.0000,1.0000,1.0000,2.0000
150.0000,-0.0000,2188.0000,0.0000,2.0000,9.0000,1.0000,1.0000,2.0000
247.0000,3.2731,458.0000,1.0000,0.0000,9.0000,1.0000,1.0000,2.0000
237.0000,2.1793,575.0000,0.0000,0.0000,9.0000,1.0000,1.0000,2.0000
223.0000,1.5558,874.0000,0.0000,0.0000,9.0000,1.0000,1.0000,2.0000
218.0000,2.0688,701.0000,1.0000,1.0000,9.0000,1.0000,1.0000,2.0000
243.0000,-1.0148,654.0000,0.0000,0.0000,9.0000,1.0000,1.0000,2.0000
187.0000,0.4897,684.0000,0.0000,1.0000,9.0000,1.0000,1.0000,2.0000
168.0000,0.2982,698.0000,1.0000,2.0000,9.0000,1.0000,1.0000,2.0000
227.0000,1.6263,1037.0000,0.0000,0.0000,9.0000,1.0000,1.0000,2.0000
222.0000,2.6759,634.0000,1.0000,1.0000,9.0000,1.0000,1.0000,2.0000
235.0000,-0.4320,614.0000,0.0000,1.0000,9.0000,1.0000,1.0000,2.0000
153.0000,1.2002,671.0000,1.0000,1.0000,9.0000,1.0000,1.0000,2.0000
166.0000,1.2236,693.0000,1.0000,2.0000,9.0000,1.0000,1.0000,2.0000
201.0000,0.7109,551.0000,1.0000,0.0000,9.0000,1.0000,1.0000,2.0000
234.0000,3.5615,753.0000,1.0000,0.0000,9.0000,1.0000,1.0000,2.0000
161.0000,0.5639,632.0000,1.0000,2.0000,9.0000,1.0000,1.0000,2.0000
267.0000,1.4853,762.0000,1.0000,0.0000,9.0000,1.0000,1.0000,2.0000
162.0000,2.8965,530.0000,1.0000,2.0000,9.0000,1.0000,1.0000,2.0000
167.0000,1.1945,550.0000,1.0000,2.0000,9.0000,1.0000,1.0000,2.0000
150.0000,0.3849,887.0000,1.0000,1.0000,9.0000,1.0000,1.0000,2.0000
150.0000,1.2966,735.0000,1.0000,2.0000,9.0000,1.0000,1.0000,2.0000
161.0000,0.6835,801.0000,1.0000,2.0000,9.0000,1.0000,1.0000,2.0000
150.0000,1.4527,676.0000,0.0000,2.0000,9.0000,1.0000,1.0000,2.0000
255.0000,1.0127,989.0000,0.0000,0.0000,9.0000,1.0000,1.0000,2.0000
183.0000,1.3215,577.0000,1.0000,1.0000,9.0000,1.0000,1.0000,2.0000
189.0000,0.4250,1036.0000,0.0000,1.0000,9.0000,1.0000,1.0000,2.0000
200.0000,1.5579,587.0000,0.0000,0.0000,9.0000,1.0000,1.0000,2.0000
156.0000,1.3646,817.0000,0.0000,2.0000,9.0000,1.0000,1.0000,2.0000
248.0000,-0.3470,676.0000,1.0000,0.0000,9.0000,1.0000,1.0000,2.0000
254.0000,2.0997,970.0000,1.0000,0.0000,9.0000,1.0000,1.0000,2.0000
201.0000,1.6196,365.0000,1.0000,1.0000,9.0000,1.0000,1.0000,2.0000
150.0000,1.2270,684.0000,1.0000,0.0000,9.0000,1.0000,1.0000,2.0000
224.0000,1.7738,507.0000,0.0000,2.0000,9.0000,1.0000,1.0000,2.0000
150.0000,1.5113,1008.0000,1.0000,2.0000,9.0000,1.0000,1.0000,2.0000
156.0000,1.1247,656.0000,1.0000,2.0000,9.0000,1.0000,1.0000,2.0000
193.0000,2.6455,1111.0000,1.0000,0.0000,9.0000,1.0000,1.0000,2.0000
216.0000,3.1527,498.0000,1.0000,1.0000,9.0000,1.0000,1.0000,2.0000
169.0000,1.0369,1008.0000,1.0000,2.0000,9.0000,1.0000,1.0000,2.0000
162.0000,2.0056,501.0000,1.0000,2.0000,9.0000,1.0000,1.0000,2.0000
169.0000,3.7090,581.0000,0.0000,1.0000,9.0000,1.0000,1.0000,2.0000
160.0000,0.7518,679.0000,1.0000,2.0000,9.0000,1.0000,1.0000,2.0000
209.0000,1.6640,540.0000,1.0000,1.0000,9.0000,1.0000,1.0000,2.0000
150.0000,2.1113,570.0000,1.0000,2.0000,9.0000,1.0000,1.0000,2.0000
158.0000,2.0909,638.0000,1.0000,2.0000,9.0000,1.0000,1.0000,2.0000
239.0000,1.8482,489.0000,0.0000,0.0000,9.0000,1.0000,1.0000,2.0000
215.0000,0.5868,765.0000,1.0000,1.0000,9.0000,1.0000,1.0000,2.0000
243.0000,1.0153,1512.0000,1.0000,1.0000,9.0000,1.0000,1.0000,2.0000
190.0000,2.3596,641.0000,1.0000,0.0000,9.0000,1.0000,1.0000,2.0000
158.0000,1.8268,629.0000,1.0000,1.0000,9.0000,1.0000,1.0000,2.0000
160.0000,1.1513,831.0000,0.0000,2.0000,9.0000,1.0000,1.0000,2.0000
155.0000,0.1315,870.0000,1.0000,0.0000,9.0000,1.0000,1.0000,2.0000
191.0000,1.6478,757.0000,1.0000,0.0000,9.0000,1.0000,1.0000,2.0000
165.0000,2.2803,545.0000,0.0000,0.0000,9.0000,1.0000,1.0000,2.0000
157.0000,2.1347,1021.0000,1.0000,1.0000,9.0000,1.0000,1.0000,2.0000
153.0000,1.0407,704.0000,0.0000,2.0000,9.0000,1.0000,1.0000,2.0000
273.0000,2.0100,555.0000,1.0000,0.0000,9.0000,1.0000,1.0000,2.0000
227.0000,1.3805,843.0000,0.0000,0.0000,9.0000,1.0000,1.0000,2.0000
167.0000,1.7680,857.0000,0.0000,2.0000,9.0000,1.0000,1.0000,2.0000
150.0000,1.0512,577.0000,1.0000,2.0000,9.0000,1.0000,1.0000,2.0000
222.0000,3.5579,758.0000,1.0000,0.0000,9.0000,1.0000,1.0000,2.0000
239.0000,3.7267,460.0000,1.0000,0.0000,9.0000,1.0000,1.0000,2.0000
164.0000,2.2570,635.0000,1.0000,1.0000,9.0000,1.0000,1.0000,2.0000
150.0000,1.8255,624.0000,0.0000,2.0000,9.0000,1.0000,1.0000,2.0000
157.0000,1.6903,774.0000,0.0000,1.0000,9.0000,1.0000,1.0000,2.0000
265.0000,4.2776,1041.0000,0.0000,0.0000,9.0000,1.0000,1.0000,2.0000
160.0000,2.1771,544.0000,0.0000,2.0000,9.0000,1.0000,1.0000,2.0000
179.0000,1.1196,558.0000,1.0000,2.0000,9.0000,1.0000,1.0000,2.0000
205.0000,0.6624,1759.0000,1.0000,1.0000,10.0000,1.0000,2.0000,2.0000
151.0000,1.0906,546.0000,1.0000,2.0000,10.0000,1.0000,2.0000,2.0000
174.0000,1.2071,759.0000,1.0000,1.0000,10.0000,1.0000,2.0000,2.0000
166.0000,0.5805,705.0000,0.0000,2.0000,10.0000,1.0000,2.0000,2.0000
162.0000,0.5946,675.0000,0.0000,2.0000,10.0000,1.0000,2.0000,2.0000
201.0000,0.9689,668.0000,0.0000,1.0000,10.0000,1.0000,2.0000,2.0000
164.0000,1.1440,612.0000,0.0000,2.0000,10.0000,1.0000,2.0000,2.0000
232.0000,2.2173,1030.0000,0.0000,0.0000,10.0000,1.0000,2.0000,2.0000
178.0000,0.3290,794.0000,0.0000,1.0000,10.0000,1.0000,2.0000,2.0000
176.0000,1.3066,517.0000,1.0000,0.0000,10.0000,1.0000,2.0000,2.0000
191.0000,1.1359,507.0000,1.0000,1.0000,10.0000,1.0000,2.0000,2.0000
168.0000,1.1068,825.0000,1.0000,2.0000,10.0000,1.0000,2.0000,2.0000
172.0000,1.8436,816.0000,1.0000,1.0000,10.0000,1.0000,2.0000,2.0000
150.0000,0.5801,934.0000,0.0000,1.0000,10.0000,1.0000,2.0000,2.0000
173.0000,2.7418,734.0000,0.0000,0.0000,10.0000,1.0000,2.0000,2.0000
189.0000,1.4592,522.0000,1.0000,1.0000,10.0000,1.0000,2.0000,2.0000
150.0000,1.2221,636.0000,0.0000,2.0000,10.0000,1.0000,2.0000,2.0000
178.0000,1.3845,612.0000,1.0000,2.0000,10.0000,1.0000,2.0000,2.0000
150.0000,1.3119,940.0000,1.0000,2.0000,10.0000,1.0000,2.0000,2.0000
157.0000,0.6706,749.0000,1.0000,2.0000,10.0000,1.0000,2.0000,2.0000
203.0000,2.4612,558.0000,1.0000,0.0000,10.0000,1.0000,2.0000,2.0000
166.0000,1.0917,1082.0000,1.0000,2.0000,10.0000,1.0000,2.0000,2.0000
246.0000,2.0930,671.0000,1.0000,0.0000,10.0000,1.0000,2.0000,2.0000
208.0000,1.2432,563.0000,1.0000,0.0000,10.0000,1.0000,2.0000,2.0000
203.0000,1.3329,703.0000,0.0000,0.0000,10.0000,1.0000,2.0000,2.0000
150.0000,0.6360,511.0000,0.0000,2.0000,10.0000,1.0000,2.0000,2.0000
168.0000,1.0114,570.0000,0.0000,2.0000,10.0000,1.0000,2.0000,2.0000
160.0000,1.0422,900.0000,1.0000,1.0000,10.0000,1.0000,2.0000,2.0000
203.0000,1.3516,885.0000,1.0000,1.0000,10.0000,1.0000,2.0000,2.0000
150.0000,0.8890,567.0000,1.0000,2.0000,10.0000,1.0000,2.0000,2.0000
182.0000,1.0002,543.0000,1.0000,1.0000,10.0000,1.0000,2.0000,2.0000
150.0000,0.3193,578.0000,0.0000,0.0000,10.0000,1.0000,2.0000,2.0000
249.0000,1.3518,1030.0000,1.0000,0.0000,10.0000,1.0000,2.0000,2.0000
228.0000,0.3816,516.0000,1.0000,1.0000,10.0000,1.0000,2.0000,2.0000
161.0000,0.5229,825.0000,1.0000,2.0000,10.0000,1.0000,2.0000,2.0000
197.0000,2.3109,608.0000,1.0000,1.0000,10.0000,1.0000,2.0000,2.0000
152.0000,1.3273,484.0000,1.0000,2.0000,10.0000,1.0000,2.0000,2.0000
162.0000,1.0242,577.0000,1.0000,1.0000,10.0000,1.0000,2.0000,2.0000
150.0000,1.5942,766.0000,0.0000,0.0000,10.0000,1.0000,2.0000,2.0000
190.0000,0.6678,543.0000,1.0000,1.0000,10.0000,1.0000,2.0000,2.0000
150.0000,1.1678,603.0000,1.0000,2.0000,10.0000,1.0000,2.0000,2.0000
150.0000,2.0006,539.0000,1.0000,1.0000,10.0000,1.0000,2.0000,2.0000
186.0000,1.4083,508.0000,1.0000,0.0000,10.0000,1.0000,2.0000,2.0000
155.0000,1.4765,723.0000,0.0000,2.0000,10.0000,1.0000,2.0000,2.0000
150.0000,1.8983,738.0000,1.0000,2.0000,10.0000,1.0000,2.0000,2.0000
165.0000,0.9673,639.0000,1.0000,1.0000,10.0000,1.0000,2.0000,2.0000
250.0000,3.3604,565.0000,0.0000,0.0000,10.0000,1.0000,2.0000,2.0000
162.0000,0.7511,873.0000,1.0000,2.0000,10.0000,1.0000,2.0000,2.0000
193.0000,0.9427,432.0000,1.0000,2.0000,10.0000,1.0000,2.0000,2.0000
178.0000,1.4398,592.0000,0.0000,1.0000,10.0000,1.0000,2.0000,2.0000
252.0000,3.0037,535.0000,0.0000,0.0000,10.0000,1.0000,2.0000,2.0000
212.0000,0.4729,753.0000,1.0000,2.0000,10.0000,1.0000,2.0000,2.0000
213.0000,1.6707,691.0000,1.0000,0.0000,10.0000,1.0000,2.0000,2.0000
209.0000,2.0894,600.0000,0.0000,0.0000,10.0000,1.0000,2.0000,2.0000
213.0000,0.7888,503.0000,0.0000,0.0000,10.0000,1.0000,2.0000,2.0000
179.0000,1.8651,760.0000,1.0000,1.0000,10.0000,1.0000,2.0000,2.0000
160.0000,1.7138,509.0000,1.0000,1.0000,10.0000,1.0000,2.0000,2.0000
165.0000,0.6705,794.0000,0.0000,1.0000,10.0000,1.0000,2.0000,2.0000
212.0000,0.7429,639.0000,1.0000,0.0000,10.0000,1.0000,2.0000,2.0000
158.0000,0.6493,1366.0000,1.0000,2.0000,10.0000,1.0000,2.0000,2.0000
173.0000,1.0489,755.0000,1.0000,1.0000,10.0000,1.0000,2.0000,2.0000
204.0000,0.2559,754.0000,1.0000,0.0000,10.0000,1.0000,2.0000,2.0000
189.0000,1.2533,848.0000,0.0000,0.0000,10.0000,1.0000,2.0000,2.0000
158.0000,1.3286,469.0000,1.0000,2.0000,10.0000,1.0000,2.0000,2.0000
151.0000,1.6300,573.0000,0.0000,2.0000,10.0000,1.0000,2.0000,2.0000
150.0000,1.5336,697.0000,1.0000,2.0000,10.0000,1.0000,2.0000,2.0000
150.0000,1.2539,538.0000,1.0000,2.0000,10.0000,1.0000,2.0000,2.0000
215.0000,2.0814,617.0000,0.0000,0.0000,10.0000,1.0000,2.0000,2.0000
173.0000,0.6397,756.0000,0.0000,1.0000,10.0000,1.0000,2.0000,2.0000
257.0000,2.2512,1207.0000,0.0000,0.0000,10.0000,1.0000,2.0000,2.0000
175.0000,0.7763,829.0000,0.0000,1.0000,10.0000,1.0000,2.0000,2.0000
176.0000,1.9234,639.0000,0.0000,0.0000,10.0000,1.0000,2.0000,2.0000
188.0000,1.4757,712.0000,0.0000,1.0000,10.0000,1.0000,2.0000,2.0000
190.0000,1.4524,559.0000,0.0000,1.0000,10.0000,1.0000,2.0000,2.0000
150.0000,0.8019,614.0000,1.0000,1.0000,10.0000,1.0000,2.0000,2.0000
155.0000,0.1982,501.0000,0.0000,0.0000,10.0000,1.0000,2.0000,2.0000
155.0000,1.5188,609.0000,1.0000,1.0000,10.0000,1.0000,2.0000,2.0000
150.0000,0.5424,595.0000,1.0000,2.0000,10.0000,1.0000,2.0000,2.0000
159.0000,0.8460,581.0000,0.0000,0.0000,10.0000,1.0000,2.0000,2.0000
172.0000,2.4845,545.0000,1.0000,1.0000,10.0000,1.0000,2.0000,2.0000
241.0000,1.6020,448.0000,0.0000,0.0000,10.0000,1.0000,2.0000,2.0000
163.0000,0.9421,795.0000,0.0000,1.0000,10.0000,1.0000,2.0000,2.0000
155.0000,2.0540,566.0000,1.0000,1.0000,10.0000,1.0000,2.0000,2.0000
159.0000,1.6334,635.0000,0.0000,2.0000,10.0000,1.0000,2.0000,2.0000
188.0000,1.6422,622.0000,1.0000,1.0000,10.0000,1.0000,2.0000,2.0000
230.0000,-0.0978,616.0000,1.0000,0.0000,10.0000,1.0000,2.0000,2.0000
150.0000,1.2466,892.0000,1.0000,2.0000,10.0000,1.0000,2.0000,2.0000
169.0000,2.9609,503.0000,1.0000,1.0000,10.0000,1.0000,2.0000,2.0000
227.0000,1.2075,556.0000,0.0000,0.0000,10.0000,1.0000,2.0000,2.0000
170.0000,1.8574,545.0000,1.0000,1.0000,10.0000,1.0000,2.0000,2.0000
163.0000,2.0746,605.0000,1.0000,1.0000,10.0000,1.0000,2.0000,2.0000
153.0000,2.5760,605.0000,1.0000,1.0000,10.0000,1.0000,2.0000,2.0000
269.0000,0.6837,553.0000,0.0000,0.0000,10.0000,1.0000,2.0000,2.0000
151.0000,1.6027,926.0000,1.0000,2.0000,10.0000,1.0000,2.0000,2.0000
154.0000,0.9281,550.0000,1.0000,2.0000,10.0000,1.0000,2.0000,2.0000
170.0000,2.2828,557.0000,0.0000,0.0000,10.0000,1.0000,2.0000,2.0000
150.0000,1.3398,543.0000,1.0000,2.0000,10.0000,1.0000,2.0000,2.0000
150.0000,0.7403,899.0000,1.0000,2.0000,10.0000,1.0000,2.0000,2.0000
172.0000,0.8695,688.0000,1.0000,2.0000,10.0000,1.0000,2.0000,2.0000
176.0000,2.0421,469.0000,1.0000,1.0000,10.0000,1.0000,2.0000,2.0000
168.0000,1.7298,498.0000,1.0000,1.0000,10.0000,1.0000,2.0000,2.0000
207.0000,0.0804,994.0000,1.0000,0.0000,10.0000,1.0000,2.0000,2.0000
208.0000,2.2687,578.0000,0.0000,0.0000,10.0000,1.0000,2.0000,2.0000
150.0000,1.1856,859.0000,1.0000,2.0000,10.0000,1.0000,2.0000,2.0000
168.0000,1.6455,626.0000,1.0000,1.0000,10.0000,1.0000,2.0000,2.0000
150.0000,0.9797,1124.0000,1.0000,0.0000,10.0000,1.0000,2.0000,2.0000
161.0000,1.3214,987.0000,1.0000,1.0000,10.0000,1.0000,2.0000,2.0000
156.0000,1.8176,738.0000,1.0000,2.0000,10.0000,1.0000,2.0000,2.0000
150.0000,1.2572,488.0000,1.0000,2.0000,10.0000,1.0000,2.0000,2.0000
150.0000,0.4457,516.0000,1.0000,2.0000,10.0000,1.0000,2.0000,2.0000
250.0000,1.1901,631.0000,1.0000,0.0000,10.0000,1.0000,2.0000,2.0000
158.0000,2.3760,407.0000,1.0000,1.0000,10.0000,1.0000,2.0000,2.0000
150.0000,0.5188,837.0000,0.0000,1.0000,10.0000,1.0000,2.0000,2.0000
233.0000,1.4070,581.0000,0.0000,0.0000,10.0000,1.0000,2.0000,2.0000
153.0000,0.4165,567.0000,1.0000,1.0000,10.0000,1.0000,2.0000,2.0000
158.0000,2.0861,594.0000,1.0000,1.0000,10.0000,1.0000,2.0000,2.0000
172.0000,0.7094,621.0000,0.0000,1.0000,10.0000,1.0000,2.0000,2.0000
150.0000,1.1147,624.0000,1.0000,2.0000,10.0000,1.0000,2.0000,2.0000
223.0000,2.3316,620.0000,1.0000,0.0000,10.0000,1.0000,2.0000,2.0000
270.0000,1.6472,567.0000,1.0000,0.0000,10.0000,1.0000,2.0000,2.0000
150.0000,1.2468,503.0000,1.0000,2.0000,10.0000,1.0000,2.0000,2.0000
156.0000,1.0182,541.0000,1.0000,2.0000,10.0000,1.0000,2.0000,2.0000
158.0000,1.6045,565.0000,1.0000,2.0000,10.0000,1.0000,2.0000,2.0000
251.0000,1.1387,748.0000,1.0000,0.0000,10.0000,1.0000,2.0000,2.0000
230.0000,1.6909,500.0000,1.0000,0.0000,10.0000,1.0000,2.0000,2.0000
253.0000,0.8675,730.0000,1.0000,0.0000,10.0000,1.0000,2.0000,2.0000
225.0000,1.8294,618.0000,1.0000,0.0000,10.0000,1.0000,2.0000,2.0000
161.0000,1.4983,577.0000,1.0000,2.0000,10.0000,1.0000,2.0000,2.0000
162.0000,1.1383,877.0000,1.0000,2.0000,10.0000,1.0000,2.0000,2.0000
166.0000,1.1942,693.0000,1.0000,1.0000,10.0000,1.0000,2.0000,2.0000
192.0000,1.7796,527.0000,0.0000,1.0000,10.0000,1.0000,2.0000,2.0000
150.0000,0.7362,560.0000,1.0000,1.0000,10.0000,1.0000,2.0000,2.0000
232.0000,1.3949,643.0000,0.0000,0.0000,10.0000,1.0000,2.0000,2.0000
158.0000,0.2987,614.0000,1.0000,1.0000,10.0000,1.0000,2.0000,2.0000
165.0000,0.8571,1334.0000,1.0000,1.0000,10.0000,1.0000,2.0000,2.0000
167.0000,1.1196,589.0000,1.0000,2.0000,10.0000,1.0000,2.0000,2.0000
262.0000,0.6455,1040.0000,0.0000,0.0000,10.0000,1.0000,2.0000,2.0000
152.0000,1.2625,443.0000,1.0000,2.0000,10.0000,1.0000,2.0000,2.0000
151.0000,1.5375,504.0000,1.0000,2.0000,10.0000,1.0000,2.0000,2.0000
180.0000,2.2098,541.0000,1.0000,1.0000,10.0000,1.0000,2.0000,2.0000
228.0000,1.2820,533.0000,1.0000,0.0000,10.0000,1.0000,2.0000,2.0000
218.0000,2.3297,443.0000,1.0000,0.0000,10.0000,1.0000,2.0000,2.0000
153.0000,1.4241,794.0000,1.0000,2.0000,10.0000,1.0000,2.0000,2.0000
192.0000,1.1093,547.0000,0.0000,0.0000,10.0000,1.0000,2.0000,2.0000
164.0000,1.3092,567.0000,1.0000,1.0000,10.0000,1.0000,2.0000,2.0000
208.0000,2.6403,869.0000,0.0000,0.0000,10.0000,1.0000,2.0000,2.0000
165.0000,1.6289,725.0000,1.0000,1.0000,10.0000,1.0000,2.0000,2.0000
261.0000,1.6352,952.0000,1.0000,0.0000,10.0000,1.0000,2.0000,2.0000
153.0000,0.6741,667.0000,1.0000,2.0000,10.0000,1.0000,2.0000,2.0000
165.0000,1.3294,660.0000,1.0000,2.0000,10.0000,1.0000,2.0000,2.0000
208.0000,2.4965,655.0000,1.0000,0.0000,10.0000,1.0000,2.0000,2.0000
174.0000,0.7001,688.0000,1.0000,2.0000,10.0000,1.0000,2.0000,2.0000
175.0000,1.8933,907.0000,0.0000,1.0000,11.0000,1.0000,1.0000,3.0000
267.0000,1.6534,1057.0000,1.0000,0.0000,11.0000,1.0000,1.0000,3.0000
169.0000,0.6601,1080.0000,1.0000,2.0000,11.0000,1.0000,1.0000,3.0000
189.0000,0.6240,683.0000,0.0000,1.0000,11.0000,1.0000,1.0000,3.0000
272.0000,2.0287,1301.0000,1.0000,1.0000,11.0000,1.0000,1.0000,3.0000
165.0000,2.0773,627.0000,0.0000,1.0000,11.0000,1.0000,1.0000,3.0000
186.0000,1.4261,813.0000,1.0000,1.0000,11.0000,1.0000,1.0000,3.0000
189.0000,0.1521,1378.0000,1.0000,0.0000,11.0000,1.0000,1.0000,3.0000
238.0000,0.5280,968.0000,1.0000,2.0000,11.0000,1.0000,1.0000,3.0000
205.0000,1.9622,896.0000,0.0000,1.0000,11.0000,1.0000,1.0000,3.0000
217.0000,1.3661,842.0000,1.0000,2.0000,11.0000,1.0000,1.0000,3.0000
209.0000,0.5300,886.0000,1.0000,1.0000,11.0000,1.0000,1.0000,3.0000
212.0000,0.2738,837.0000,1.0000,2.0000,11.0000,1.0000,1.0000,3.0000
183.0000,0.4193,641.0000,1.0000,2.0000,11.0000,1.0000,1.0000,3.0000
188.0000,0.7969,875.0000,1.0000,2.0000,11.0000,1.0000,1.0000,3.0000
164.0000,1.1400,1025.0000,1.0000,2.0000,11.0000,1.0000,1.0000,3.0000
191.0000,2.1371,639.0000,1.0000,1.0000,11.0000,1.0000,1.0000,3.0000
260.0000,1.3216,942.0000,0.0000,0.0000,11.0000,1.0000,1.0000,3.0000
208.0000,0.7589,907.0000,0.0000,0.0000,11.0000,1.0000,1.0000,3.0000
196.0000,0.6681,728.0000,0.0000,0.0000,11.0000,1.0000,1.0000,3.0000
177.0000,1.2717,606.0000,1.0000,2.0000,11.0000,1.0000,1.0000,3.0000
165.0000,1.4458,769.0000,1.0000,2.0000,11.0000,1.0000,1.0000,3.0000
190.0000,0.8906,1028.0000,0.0000,2.0000,11.0000,1.0000,1.0000,3.0000
265.0000,1.5348,600.0000,1.0000,1.0000,11.0000,1.0000,1.0000,3.0000
177.0000,2.4776,655.0000,0.0000,1.0000,11.0000,1.0000,1.0000,3.0000
206.0000,1.6552,977.0000,0.0000,0.0000,11.0000,1.0000,1.0000,3.0000
168.0000,1.3067,682.0000,1.0000,2.0000,11.0000,1.0000,1.0000,3.0000
192.0000,0.3237,911.0000,1.0000,0.0000,11.0000,1.0000,1.0000,3.0000
197.0000,1.6609,716.0000,0.0000,2.0000,11.0000,1.0000,1.0000,3.0000
206.0000,-0.5983,669.0000,1.0000,1.0000,11.0000,1.0000,1.0000,3.0000
189.0000,1.3026,1078.0000,1.0000,2.0000,11.0000,1.0000,1.0000,3.0000
198.0000,2.4110,788.0000,0.0000,1.0000,11.0000,1.0000,1.0000,3.0000
191.0000,2.3808,861.0000,0.0000,1.0000,11.0000,1.0000,1.0000,3.0000
218.0000,1.1687,723.0000,1.0000,2.0000,11.0000,1.0000,1.0000,3.0000
217.0000,1.9055,768.0000,0.0000,0.0000,11.0000,1.0000,1.0000,3.0000
236.0000,1.8192,927.0000,0.0000,0.0000,11.0000,1.0000,1.0000,3.0000
156.0000,0.3976,678.0000,1.0000,2.0000,11.0000,1.0000,1.0000,3.0000
267.0000,1.7300,667.0000,1.0000,0.0000,11.0000,1.0000,1.0000,3.0000
150.0000,-0.0000,855.0000,1.0000,2.0000,11.0000,1.0000,1.0000,3.0000
242.0000,1.8046,747.0000,1.0000,0.0000,11.0000,1.0000,1.0000,3.0000
178.0000,1.4791,606.0000,1.0000,2.0000,11.0000,1.0000,1.0000,3.0000
208.0000,0.7101,765.0000,1.0000,1.0000,11.0000,1.0000,1.0000,3.0000
182.0000,1.2745,769.0000,0.0000,2.0000,11.0000,1.0000,1.0000,3.0000
199.0000,1.2920,694.0000,1.0000,1.0000,11.0000,1.0000,1.0000,3.0000
165.0000,1.4262,713.0000,1.0000,2.0000,11.0000,1.0000,1.0000,3.0000
212.0000,0.2757,910.0000,0.0000,1.0000,11.0000,1.0000,1.0000,3.0000
172.0000,0.9318,584.0000,1.0000,2.0000,11.0000,1.0000,1.0000,3.0000
238.0000,0.6590,748.0000,1.0000,1.0000,11.0000,1.0000,1.0000,3.0000
213.0000,0.6308,767.0000,0.0000,1.0000,11.0000,1.0000,1.0000,3.0000
261.0000,0.9968,655.0000,1.0000,0.0000,11.0000,1.0000,1.0000,3.0000
202.0000,1.5970,699.0000,1.0000,0.0000,11.0000,1.0000,1.0000,3.0000
158.0000,0.9870,595.0000,1.0000,1.0000,11.0000,1.0000,1.0000,3.0000
245.0000,2.1828,804.0000,1.0000,1.0000,11.0000,1.0000,1.0000,3.0000
213.0000,1.2121,682.0000,1.0000,2.0000,11.0000,1.0000,1.0000,3.0000
193.0000,1.5719,780.0000,1.0000,1.0000,11.0000,1.0000,1.0000,3.0000
247.0000,2.2515,675.0000,1.0000,0.0000,11.0000,1.0000,1.0000,3.0000
257.0000,1.9033,837.0000,0.0000,0.0000,11.0000,1.0000,1.0000,3.0000
207.0000,2.4121,543.0000,1.0000,0.0000,11.0000,1.0000,1.0000,3.0000
264.0000,1.2894,483.0000,1.0000,2.0000,11.0000,1.0000,1.0000,3.0000
172.0000,2.3820,552.0000,1.0000,1.0000,11.0000,1.0000,1.0000,3.0000
178.0000,1.2465,563.0000,1.0000,2.0000,11.0000,1.0000,1.0000,3.0000
215.0000,1.1541,654.0000,1.0000,0.0000,11.0000,1.0000,1.0000,3.0000
150.0000,0.9467,653.0000,1.0000,2.0000,11.0000,1.0000,1.0000,3.0000
220.0000,2.0234,665.0000,0.0000,0.0000,11.0000,1.0000,1.0000,3.0000
180.0000,2.1228,733.0000,1.0000,2.0000,11.0000,1.0000,1.0000,3.0000
201.0000,3.2042,754.0000,0.0000,1.0000,11.0000,1.0000,1.0000,3.0000
170.0000,1.5781,709.0000,1.0000,2.0000,11.0000,1.0000,1.0000,3.0000
241.0000,1.1299,553.0000,1.0000,1.0000,11.0000,1.0000,1.0000,3.0000
257.0000,2.3590,611.0000,0.0000,1.0000,11.0000,1.0000,1.0000,3.0000
190.0000,1.0215,556.0000,1.0000,2.0000,11.0000,1.0000,1.0000,3.0000
173.0000,1.7803,584.0000,1.0000,1.0000,11.0000,1.0000,1.0000,3.0000
228.0000,0.9298,716.0000,1.0000,0.0000,11.0000,1.0000,1.0000,3.0000
172.0000,1.3037,612.0000,1.0000,2.0000,11.0000,1.0000,1.0000,3.0000
177.0000,1.8050,783.0000,0.0000,2.0000,11.0000,1.0000,1.0000,3.0000
164.0000,1.1298,630.0000,1.0000,2.0000,11.0000,1.0000,1.0000,3.0000
178.0000,1.8167,1008.0000,0.0000,2.0000,11.0000,1.0000,1.0000,3.0000
235.0000,1.9163,740.0000,1.0000,0.0000,11.0000,1.0000,1.0000,3.0000
208.0000,1.4076,842.0000,1.0000,1.0000,11.0000,1.0000,1.0000,3.0000
245.0000,1.1675,858.0000,0.0000,1.0000,11.0000,1.0000,1.0000,3.0000
181.0000,1.0054,664.0000,1.0000,2.0000,11.0000,1.0000,1.0000,3.0000
179.0000,3.3736,905.0000,0.0000,1.0000,11.0000,1.0000,1.0000,3.0000
177.0000,1.5178,624.0000,1.0000,2.0000,11.0000,1.0000,1.0000,3.0000
181.0000,0.9318,578.0000,0.0000,1.0000,11.0000,1.0000,1.0000,3.0000
217.0000,2.6176,920.0000,1.0000,0.0000,11.0000,1.0000,1.0000,3.0000
172.0000,1.0626,722.0000,1.0000,2.0000,11.0000,1.0000,1.0000,3.0000
170.0000,1.3664,579.0000,1.0000,2.0000,11.0000,1.0000,1.0000,3.0000
174.0000,1.2263,874.0000,1.0000,2.0000,11.0000,1.0000,1.0000,3.0000
270.0000,0.6883,631.0000,1.0000,0.0000,11.0000,1.0000,1.0000,3.0000
249.0000,1.2167,565.0000,1.0000,0.0000,11.0000,1.0000,1.0000,3.0000
167.0000,1.4086,781.0000,1.0000,2.0000,11.0000,1.0000,1.0000,3.0000
157.0000,1.1308,907.0000,1.0000,2.0000,11.0000,1.0000,1.0000,3.0000
243.0000,2.5970,773.0000,0.0000,0.0000,11.0000,1.0000,1.0000,3.0000
273.0000,0.7866,872.0000,0.0000,2.0000,11.0000,1.0000,1.0000,3.0000
150.0000,-0.0000,892.0000,0.0000,0.0000,11.0000,1.0000,1.0000,3.0000
163.0000,1.4039,686.0000,1.0000,2.0000,11.0000,1.0000,1.0000,3.0000
203.0000,1.6807,548.0000,1.0000,1.0000,11.0000,1.0000,1.0000,3.0000
270.0000,2.0620,839.0000,1.0000,0.0000,11.0000,1.0000,1.0000,3.0000
176.0000,1.3740,555.0000,1.0000,2.0000,11.0000,1.0000,1.0000,3.0000
254.0000,2.7096,871.0000,1.0000,0.0000,11.0000,1.0000,1.0000,3.0000
164.0000,0.7985,641.0000,1.0000,2.0000,11.0000,1.0000,1.0000,3.0000
204.0000,1.3681,856.0000,1.0000,0.0000,11.0000,1.0000,1.0000,3.0000
185.0000,1.3385,639.0000,1.0000,2.0000,11.0000,1.0000,1.0000,3.0000
253.0000,1.4059,920.0000,1.0000,2.0000,11.0000,1.0000,1.0000,3.0000
215.0000,0.3678,639.0000,1.0000,2.0000,11.0000,1.0000,1.0000,3.0000
201.0000,1.5459,736.0000,1.0000,1.0000,11.0000,1.0000,1.0000,3.0000
208.0000,1.2791,686.0000,1.0000,1.0000,11.0000,1.0000,1.0000,3.0000
180.0000,1.2731,1182.0000,1.0000,0.0000,11.0000,1.0000,1.0000,3.0000
165.0000,1.3453,703.0000,1.0000,2.0000,11.0000,1.0000,1.0000,3.0000
167.0000,0.5887,493.0000,1.0000,1.0000,11.0000,1.0000,1.0000,3.0000
205.0000,1.2503,804.0000,0.0000,0.0000,11.0000,1.0000,1.0000,3.0000
255.0000,1.2141,702.0000,1.0000,0.0000,11.0000,1.0000,1.0000,3.0000
187.0000,0.9404,731.0000,0.0000,2.0000,11.0000,1.0000,1.0000,3.0000
201.0000,2.3863,883.0000,1.0000,1.0000,11.0000,1.0000,1.0000,3.0000
177.0000,1.3894,483.0000,1.0000,2.0000,11.0000,1.0000,1.0000,3.0000
155.0000,0.6277,955.0000,1.0000,2.0000,11.0000,1.0000,1.0000,3.0000
192.0000,1.1887,942.0000,0.0000,0.0000,11.0000,1.0000,1.0000,3.0000
188.0000,1.2179,824.0000,0.0000,0.0000,11.0000,1.0000,1.0000,3.0000
219.0000,1.3470,780.0000,1.0000,0.0000,11.0000,1.0000,1.0000,3.0000
230.0000,1.0550,751.0000,1.0000,0.0000,11.0000,1.0000,1.0000,3.0000
165.0000,0.7979,887.0000,1.0000,2.0000,11.0000,1.0000,1.0000,3.0000
253.0000,1.9482,583.0000,0.0000,1.0000,11.0000,1.0000,1.0000,3.0000
239.0000,2.5351,577.0000,1.0000,1.0000,11.0000,1.0000,1.0000,3.0000
226.0000,0.6490,638.0000,1.0000,0.0000,11.0000,1.0000,1.0000,3.0000
258.0000,1.6269,960.0000,0.0000,0.0000,11.0000,1.0000,1.0000,3.0000
218.0000,1.2660,754.0000,1.0000,1.0000,11.0000,1.0000,1.0000,3.0000
171.0000,2.8994,760.0000,1.0000,1.0000,11.0000,1.0000,1.0000,3.0000
250.0000,1.6128,658.0000,1.0000,0.0000,11.0000,1.0000,1.0000,3.0000
185.0000,1.3300,935.0000,0.0000,1.0000,11.0000,1.0000,1.0000,3.0000
263.0000,1.8620,848.0000,0.0000,0.0000,11.0000,1.0000,1.0000,3.0000
242.0000,0.5886,615.0000,1.0000,0.0000,11.0000,1.0000,1.0000,3.0000
184.0000,2.8123,722.0000,0.0000,1.0000,11.0000,1.0000,1.0000,3.0000
150.0000,-0.0000,655.0000,0.0000,1.0000,11.0000,1.0000,1.0000,3.0000
261.0000,1.1507,823.0000,1.0000,0.0000,11.0000,1.0000,1.0000,3.0000
217.0000,1.5256,677.0000,1.0000,0.0000,11.0000,1.0000,1.0000,3.0000
188.0000,2.0371,916.0000,0.0000,1.0000,11.0000,1.0000,1.0000,3.0000
180.0000,2.0519,997.0000,0.0000,2.0000,11.0000,1.0000,1.0000,3.0000
171.0000,1.3311,606.0000,1.0000,2.0000,11.0000,1.0000,1.0000,3.0000
235.0000,1.2737,880.0000,0.0000,1.0000,11.0000,1.0000,1.0000,3.0000
200.0000,1.1099,690.0000,1.0000,2.0000,11.0000,1.0000,1.0000,3.0000
222.0000,-0.1302,1032.0000,0.0000,1.0000,11.0000,1.0000,1.0000,3.0000
236.0000,1.7672,955.0000,0.0000,0.0000,11.0000,1.0000,1.0000,3.0000
264.0000,1.6116,809.0000,1.0000,0.0000,11.0000,1.0000,1.0000,3.0000
237.0000,0.7588,1089.0000,1.0000,0.0000,11.0000,1.0000,1.0000,3.0000
179.0000,0.9090,802.0000,1.0000,2.0000,12.0000,1.0000,2.0000,3.0000
161.0000,1.9480,942.0000,0.0000,1.0000,12.0000,1.0000,2.0000,3.0000
195.0000,1.8089,542.0000,0.0000,1.0000,12.0000,1.0000,2.0000,3.0000
152.0000,0.3623,1024.0000,1.0000,2.0000,12.0000,1.0000,2.0000,3.0000
252.0000,1.3984,824.0000,1.0000,0.0000,12.0000,1.0000,2.0000,3.0000
260.0000,0.5832,665.0000,1.0000,0.0000,12.0000,1.0000,2.0000,3.0000
189.0000,0.6764,638.0000,1.0000,2.0000,12.0000,1.0000,2.0000,3.0000
157.0000,1.8146,602.0000,1.0000,2.0000,12.0000,1.0000,2.0000,3.0000
257.0000,0.2074,1072.0000,0.0000,0.0000,12.0000,1.0000,2.0000,3.0000
212.0000,1.8524,882.0000,1.0000,1.0000,12.0000,1.0000,2.0000,3.0000
219.0000,0.9032,684.0000,1.0000,0.0000,12.0000,1.0000,2.0000,3.0000
217.0000,1.5681,873.0000,1.0000,0.0000,12.0000,1.0000,2.0000,3.0000
243.0000,1.1726,999.0000,1.0000,2.0000,12.0000,1.0000,2.0000,3.0000
230.0000,1.5247,568.0000,1.0000,0.0000,12.0000,1.0000,2.0000,3.0000
200.0000,1.1777,746.0000,0.0000,1.0000,12.0000,1.0000,2.0000,3.0000
228.0000,0.3788,772.0000,1.0000,0.0000,12.0000,1.0000,2.0000,3.0000
228.0000,1.8005,878.0000,1.0000,1.0000,12.0000,1.0000,2.0000,3.0000
207.0000,1.3467,627.0000,1.0000,2.0000,12.0000,1.0000,2.0000,3.0000
172.0000,1.3601,643.0000,1.0000,2.0000,12.0000,1.0000,2.0000,3.0000
178.0000,1.1032,1161.0000,0.0000,2.0000,12.0000,1.0000,2.0000,3.0000
182.0000,1.0245,656.0000,1.0000,2.0000,12.0000,1.0000,2.0000,3.0000
219.0000,1.9830,700.0000,0.0000,1.0000,12.0000,1.0000,2.0000,3.0000
248.0000,0.5957,1010.0000,1.0000,0.0000,12.0000,1.0000,2.0000,3.0000
267.0000,2.1474,845.0000,0.0000,1.0000,12.0000,1.0000,2.0000,3.0000
175.0000,1.0374,835.0000,0.0000,2.0000,12.0000,1.0000,2.0000,3.0000
206.0000,1.3288,658.0000,1.0000,0.0000,12.0000,1.0000,2.0000,3.0000
165.0000,1.2178,629.0000,1.0000,2.0000,12.0000,1.0000,2.0000,3.0000
238.0000,0.6173,797.0000,1.0000,0.0000,12.0000,1.0000,2.0000,3.0000
171.0000,1.6161,587.0000,1.0000,2.0000,12.0000,1.0000,2.0000,3.0000
160.0000,1.6683,599.0000,1.0000,2.0000,12.0000,1.0000,2.0000,3.0000
223.0000,1.0808,1060.0000,1.0000,1.0000,12.0000,1.0000,2.0000,3.0000
221.0000,1.9600,1035.0000,1.0000,0.0000,12.0000,1.0000,2.0000,3.0000
257.0000,0.6338,775.0000,1.0000,0.0000,12.0000,1.0000,2.0000,3.0000
250.0000,1.1513,847.0000,1.0000,1.0000,12.0000,1.0000,2.0000,3.0000
163.0000,1.7724,701.0000,1.0000,2.0000,12.0000,1.0000,2.0000,3.0000
174.0000,0.7291,958.0000,1.0000,2.0000,12.0000,1.0000,2.0000,3.0000
258.0000,0.4384,790.0000,1.0000,0.0000,12.0000,1.0000,2.0000,3.0000
185.0000,0.8894,750.0000,1.0000,2.0000,12.0000,1.0000,2.0000,3.0000
256.0000,0.7032,669.0000,1.0000,2.0000,12.0000,1.0000,2.0000,3.0000
260.0000,1.7106,613.0000,1.0000,1.0000,12.0000,1.0000,2.0000,3.0000
245.0000,1.5323,924.0000,1.0000,0.0000,12.0000,1.0000,2.0000,3.0000
183.0000,1.3629,620.0000,1.0000,2.0000,12.0000,1.0000,2.0000,3.0000
182.0000,1.3680,690.0000,1.0000,2.0000,12.0000,1.0000,2.0000,3.0000
244.0000,2.2524,586.0000,1.0000,1.0000,12.0000,1.0000,2.0000,3.0000
186.0000,0.8154,780.0000,1.0000,0.0000,12.0000,1.0000,2.0000,3.0000
175.0000,1.3076,963.0000,0.0000,2.0000,12.0000,1.0000,2.0000,3.0000
251.0000,0.9042,583.0000,1.0000,1.0000,12.0000,1.0000,2.0000,3.0000
211.0000,0.8910,561.0000,1.0000,1.0000,12.0000,1.0000,2.0000,3.0000
160.0000,0.9762,962.0000,1.0000,2.0000,12.0000,1.0000,2.0000,3.0000
242.0000,1.5648,560.0000,1.0000,0.0000,12.0000,1.0000,2.0000,3.0000
195.0000,0.8877,920.0000,0.0000,2.0000,12.0000,1.0000,2.0000,3.0000
186.0000,0.9864,904.0000,0.0000,1.0000,12.0000,1.0000,2.0000,3.0000
156.0000,1.3499,692.0000,1.0000,2.0000,12.0000,1.0000,2.0000,3.0000
258.0000,1.9183,548.0000,1.0000,1.0000,12.0000,1.0000,2.0000,3.0000
203.0000,1.1871,542.0000,1.0000,1.0000,12.0000,1.0000,2.0000,3.0000
256.0000,1.6264,681.0000,1.0000,0.0000,12.0000,1.0000,2.0000,3.0000
174.0000,1.6064,604.0000,0.0000,1.0000,12.0000,1.0000,2.0000,3.0000
226.0000,1.0142,817.0000,0.0000,0.0000,12.0000,1.0000,2.0000,3.0000
258.0000,2.5466,881.0000,1.0000,0.0000,12.0000,1.0000,2.0000,3.0000
171.0000,1.7623,1205.0000,0.0000,1.0000,12.0000,1.0000,2.0000,3.0000
261.0000,0.9482,594.0000,1.0000,1.0000,12.0000,1.0000,2.0000,3.0000
157.0000,1.0526,588.0000,1.0000,2.0000,12.0000,1.0000,2.0000,3.0000
176.0000,1.0515,613.0000,1.0000,2.0000,12.0000,1.0000,2.0000,3.0000
256.0000,2.0716,629.0000,1.0000,0.0000,12.0000,1.0000,2.0000,3.0000
175.0000,2.0913,837.0000,1.0000,2.0000,12.0000,1.0000,2.0000,3.0000
178.0000,1.9872,557.0000,1.0000,1.0000,12.0000,1.0000,2.0000,3.0000
270.0000,1.7278,861.0000,1.0000,0.0000,12.0000,1.0000,2.0000,3.0000
168.0000,0.6379,1049.0000,0.0000,2.0000,12.0000,1.0000,2.0000,3.0000
235.0000,2.7111,595.0000,1.0000,0.0000,12.0000,1.0000,2.0000,3.0000
242.0000,1.7604,698.0000,1.0000,1.0000,12.0000,1.0000,2.0000,3.0000
200.0000,2.2994,541.0000,1.0000,1.0000,12.0000,1.0000,2.0000,3.0000
251.0000,1.9843,655.0000,1.0000,0.0000,12.0000,1.0000,2.0000,3.0000
189.0000,1.1174,758.0000,1.0000,2.0000,12.0000,1.0000,2.0000,3.0000
273.0000,2.0185,818.0000,1.0000,0.0000,12.0000,1.0000,2.0000,3.0000
233.0000,1.6397,982.0000,1.0000,1.0000,12.0000,1.0000,2.0000,3.0000
177.0000,1.1070,1099.0000,1.0000,2.0000,12.0000,1.0000,2.0000,3.0000
170.0000,1.7039,762.0000,0.0000,2.0000,12.0000,1.0000,2.0000,3.0000
224.0000,1.1991,784.0000,1.0000,0.0000,12.0000,1.0000,2.0000,3.0000
232.0000,0.1703,636.0000,1.0000,1.0000,12.0000,1.0000,2.0000,3.0000
228.0000,1.7352,638.0000,1.0000,1.0000,12.0000,1.0000,2.0000,3.0000
195.0000,2.0217,750.0000,1.0000,1.0000,12.0000,1.0000,2.0000,3.0000
187.0000,1.8784,628.0000,0.0000,2.0000,12.0000,1.0000,2.0000,3.0000
201.0000,0.8335,577.0000,1.0000,1.0000,12.0000,1.0000,2.0000,3.0000
181.0000,1.2399,557.0000,1.0000,2.0000,12.0000,1.0000,2.0000,3.0000
150.0000,0.8854,627.0000,1.0000,1.0000,12.0000,1.0000,2.0000,3.0000
188.0000,1.8811,476.0000,1.0000,1.0000,12.0000,1.0000,2.0000,3.0000
201.0000,1.1120,878.0000,1.0000,2.0000,12.0000,1.0000,2.0000,3.0000
165.0000,1.0300,566.0000,1.0000,2.0000,12.0000,1.0000,2.0000,3.0000
252.0000,2.4397,835.0000,1.0000,0.0000,12.0000,1.0000,2.0000,3.0000
257.0000,0.3545,909.0000,0.0000,0.0000,12.0000,1.0000,2.0000,3.0000
249.0000,0.7225,672.0000,1.0000,1.0000,12.0000,1.0000,2.0000,3.0000
178.0000,1.9613,798.0000,1.0000,1.0000,12.0000,1.0000,2.0000,3.0000
244.0000,1.8023,878.0000,0.0000,1.0000,12.0000,1.0000,2.0000,3.0000
267.0000,1.6526,932.0000,1.0000,0.0000,12.0000,1.0000,2.0000,3.0000
265.0000,4.5479,898.0000,0.0000,1.0000,12.0000,1.0000,2.0000,3.0000
242.0000,2.2370,723.0000,0.0000,0.0000,12.0000,1.0000,2.0000,3.0000
234.0000,1.2829,681.0000,1.0000,0.0000,12.0000,1.0000,2.0000,3.0000
267.0000,1.6697,739.0000,1.0000,2.0000,12.0000,1.0000,2.0000,3.0000
175.0000,0.9469,662.0000,1.0000,2.0000,12.0000,1.0000,2.0000,3.0000
202.0000,1.2570,553.0000,1.0000,2.0000,12.0000,1.0000,2.0000,3.0000
242.0000,1.6226,800.0000,1.0000,1.0000,12.0000,1.0000,2.0000,3.0000
172.0000,1.1138,710.0000,1.0000,2.0000,12.0000,1.0000,2.0000,3.0000
199.0000,2.5264,624.0000,1.0000,0.0000,12.0000,1.0000,2.0000,3.0000
260.0000,2.1095,676.0000,1.0000,1.0000,12.0000,1.0000,2.0000,3.0000
241.0000,1.2052,861.0000,1.0000,0.0000,12.0000,1.0000,2.0000,3.0000
208.0000,2.3199,715.0000,0.0000,1.0000,12.0000,1.0000,2.0000,3.0000
227.0000,0.7947,914.0000,0.0000,0.0000,12.0000,1.0000,2.0000,3.0000
227.0000,1.5188,1046.0000,0.0000,1.0000,12.0000,1.0000,2.0000,3.0000
242.0000,1.0784,749.0000,1.0000,0.0000,12.0000,1.0000,2.0000,3.0000
260.0000,1.0033,556.0000,1.0000,2.0000,12.0000,1.0000,2.0000,3.0000
241.0000,0.7911,739.0000,0.0000,2.0000,12.0000,1.0000,2.0000,3.0000
251.0000,1.1111,873.0000,1.0000,0.0000,12.0000,1.0000,2.0000,3.0000
267.0000,0.7440,1016.0000,0.0000,0.0000,12.0000,1.0000,2.0000,3.0000
164.0000,0.6789,607.0000,1.0000,2.0000,12.0000,1.0000,2.0000,3.0000
174.0000,2.3243,741.0000,1.0000,1.0000,12.0000,1.0000,2.0000,3.0000
227.0000,2.0374,654.0000,1.0000,0.0000,12.0000,1.0000,2.0000,3.0000
163.0000,0.6685,854.0000,0.0000,1.0000,12.0000,1.0000,2.0000,3.0000
165.0000,0.6130,528.0000,1.0000,2.0000,12.0000,1.0000,2.0000,3.0000
187.0000,1.5579,534.0000,1.0000,1.0000,12.0000,1.0000,2.0000,3.0000
204.0000,2.0110,627.0000,1.0000,1.0000,12.0000,1.0000,2.0000,3.0000
263.0000,1.2315,754.0000,1.0000,0.0000,12.0000,1.0000,2.0000,3.0000
246.0000,2.3134,661.0000,1.0000,1.0000,12.0000,1.0000,2.0000,3.0000
238.0000,1.0737,666.0000,1.0000,0.0000,12.0000,1.0000,2.0000,3.0000
198.0000,0.4026,549.0000,0.0000,0.0000,12.0000,1.0000,2.0000,3.0000
228.0000,1.1306,791.0000,1.0000,0.0000,12.0000,1.0000,2.0000,3.0000
198.0000,1.3373,849.0000,0.0000,1.0000,12.0000,1.0000,2.0000,3.0000
175.0000,0.9035,590.0000,1.0000,2.0000,12.0000,1.0000,2.0000,3.0000
206.0000,1.2718,663.0000,1.0000,0.0000,12.0000,1.0000,2.0000,3.0000
228.0000,0.7371,591.0000,1.0000,2.0000,12.0000,1.0000,2.0000,3.0000
258.0000,1.9826,634.0000,1.0000,1.0000,12.0000,1.0000,2.0000,3.0000
184.0000,1.1869,874.0000,1.0000,2.0000,12.0000,1.0000,2.0000,3.0000
204.0000,0.4175,810.0000,0.0000,1.0000,12.0000,1.0000,2.0000,3.0000
169.0000,0.8304,948.0000,1.0000,2.0000,12.0000,1.0000,2.0000,3.0000
168.0000,2.1172,929.0000,1.0000,2.0000,12.0000,1.0000,2.0000,3.0000
205.0000,0.3025,574.0000,0.0000,0.0000,12.0000,1.0000,2.0000,3.0000
210.0000,1.3069,776.0000,1.0000,0.0000,12.0000,1.0000,2.0000,3.0000
247.0000,1.2552,712.0000,1.0000,0.0000,12.0000,1.0000,2.0000,3.0000
259.0000,1.3685,830.0000,1.0000,0.0000,12.0000,1.0000,2.0000,3.0000
260.0000,0.7770,789.0000,1.0000,2.0000,12.0000,1.0000,2.0000,3.0000
176.0000,0.6514,841.0000,1.0000,1.0000,12.0000,1.0000,2.0000,3.0000
224.0000,2.4718,699.0000,0.0000,1.0000,12.0000,1.0000,2.0000,3.0000
175.0000,1.6236,1282.0000,1.0000,2.0000,12.0000,1.0000,2.0000,3.0000
209.0000,1.1373,673.0000,1.0000,0.0000,12.0000,1.0000,2.0000,3.0000
244.0000,2.0095,543.0000,0.0000,1.0000,12.0000,1.0000,2.0000,3.0000
239.0000,1.8271,535.0000,1.0000,1.0000,12.0000,1.0000,2.0000,3.0000
235.0000,2.4722,896.0000,1.0000,2.0000,13.0000,1.0000,1.0000,4.0000
233.0000,1.9864,1045.0000,0.0000,1.0000,13.0000,1.0000,1.0000,4.0000
167.0000,1.9437,841.0000,1.0000,1.0000,13.0000,1.0000,1.0000,4.0000
180.0000,0.4029,781.0000,0.0000,1.0000,13.0000,1.0000,1.0000,4.0000
194.0000,1.6152,893.0000,0.0000,1.0000,13.0000,1.0000,1.0000,4.0000
270.0000,-0.1500,1111.0000,0.0000,1.0000,13.0000,1.0000,1.0000,4.0000
217.0000,3.1558,835.0000,1.0000,1.0000,13.0000,1.0000,1.0000,4.0000
150.0000,-0.1072,768.0000,1.0000,2.0000,13.0000,1.0000,1.0000,4.0000
237.0000,2.6751,604.0000,1.0000,2.0000,13.0000,1.0000,1.0000,4.0000
187.0000,1.7971,602.0000,1.0000,0.0000,13.0000,1.0000,1.0000,4.0000
167.0000,2.9685,984.0000,1.0000,1.0000,13.0000,1.0000,1.0000,4.0000
241.0000,-0.7721,1249.0000,1.0000,2.0000,13.0000,1.0000,1.0000,4.0000
196.0000,1.6407,888.0000,1.0000,0.0000,13.0000,1.0000,1.0000,4.0000
210.0000,1.3387,749.0000,1.0000,1.0000,13.0000,1.0000,1.0000,4.0000
154.0000,2.2060,953.0000,1.0000,2.0000,13.0000,1.0000,1.0000,4.0000
153.0000,0.9673,598.0000,1.0000,1.0000,13.0000,1.0000,1.0000,4.0000
187.0000,0.3340,778.0000,0.0000,0.0000,13.0000,1.0000,1.0000,4.0000
272.0000,0.4878,842.0000,1.0000,0.0000,13.0000,1.0000,1.0000,4.0000
168.0000,1.9876,879.0000,0.0000,2.0000,13.0000,1.0000,1.0000,4.0000
165.0000,1.4211,466.0000,1.0000,1.0000,13.0000,1.0000,1.0000,4.0000
217.0000,0.4686,746.0000,1.0000,2.0000,13.0000,1.0000,1.0000,4.0000
261.0000,2.9072,790.0000,1.0000,2.0000,13.0000,1.0000,1.0000,4.0000
198.0000,-0.1019,857.0000,1.0000,0.0000,13.0000,1.0000,1.0000,4.0000
170.0000,1.3573,752.0000,1.0000,2.0000,13.0000,1.0000,1.0000,4.0000
184.0000,2.5005,741.0000,1.0000,1.0000,13.0000,1.0000,1.0000,4.0000
204.0000,2.9522,897.0000,1.0000,0.0000,13.0000,1.0000,1.0000,4.0000
193.0000,1.9178,626.0000,1.0000,1.0000,13.0000,1.0000,1.0000,4.0000
182.0000,0.5824,659.0000,0.0000,1.0000,13.0000,1.0000,1.0000,4.0000
162.0000,1.7310,733.0000,1.0000,1.0000,13.0000,1.0000,1.0000,4.0000
240.0000,2.6202,575.0000,1.0000,2.0000,13.0000,1.0000,1.0000,4.0000
195.0000,1.2661,564.0000,1.0000,0.0000,13.0000,1.0000,1.0000,4.0000
184.0000,1.1047,577.0000,1.0000,1.0000,13.0000,1.0000,1.0000,4.0000
163.0000,3.0211,568.0000,1.0000,2.0000,13.0000,1.0000,1.0000,4.0000
176.0000,2.7757,599.0000,1.0000,0.0000,13.0000,1.0000,1.0000,4.0000
187.0000,1.6360,685.0000,1.0000,2.0000,13.0000,1.0000,1.0000,4.0000
273.0000,3.0859,663.0000,1.0000,0.0000,13.0000,1.0000,1.0000,4.0000
232.0000,2.6437,582.0000,1.0000,2.0000,13.0000,1.0000,1.0000,4.0000
234.0000,1.7472,771.0000,1.0000,0.0000,13.0000,1.0000,1.0000,4.0000
221.0000,1.9985,660.0000,0.0000,0.0000,13.0000,1.0000,1.0000,4.0000
234.0000,0.8031,637.0000,1.0000,2.0000,13.0000,1.0000,1.0000,4.0000
168.0000,1.6017,686.0000,1.0000,2.0000,13.0000,1.0000,1.0000,4.0000
202.0000,3.7476,722.0000,1.0000,1.0000,13.0000,1.0000,1.0000,4.0000
241.0000,2.0855,762.0000,1.0000,2.0000,13.0000,1.0000,1.0000,4.0000
175.0000,0.7364,624.0000,1.0000,2.0000,13.0000,1.0000,1.0000,4.0000
257.0000,2.0278,540.0000,1.0000,1.0000,13.0000,1.0000,1.0000,4.0000
206.0000,0.1691,972.0000,1.0000,0.0000,13.0000,1.0000,1.0000,4.0000
206.0000,2.5397,640.0000,1.0000,0.0000,13.0000,1.0000,1.0000,4.0000
202.0000,1.2801,688.0000,1.0000,0.0000,13.0000,1.0000,1.0000,4.0000
210.0000,2.2508,921.0000,0.0000,0.0000,13.0000,1.0000,1.0000,4.0000
168.0000,3.1052,602.0000,1.0000,2.0000,13.0000,1.0000,1.0000,4.0000
260.0000,1.1405,774.0000,1.0000,2.0000,13.0000,1.0000,1.0000,4.0000
168.0000,2.8419,612.0000,1.0000,2.0000,13.0000,1.0000,1.0000,4.0000
163.0000,-0.4053,1037.0000,0.0000,1.0000,13.0000,1.0000,1.0000,4.0000
173.0000,3.4569,828.0000,1.0000,2.0000,13.0000,1.0000,1.0000,4.0000
216.0000,1.0757,735.0000,1.0000,0.0000,13.0000,1.0000,1.0000,4.0000
172.0000,2.7207,981.0000,1.0000,2.0000,13.0000,1.0000,1.0000,4.0000
198.0000,1.1692,623.0000,1.0000,1.0000,13.0000,1.0000,1.0000,4.0000
232.0000,2.2142,704.0000,1.0000,0.0000,13.0000,1.0000,1.0000,4.0000
267.0000,1.6018,865.0000,0.0000,0.0000,13.0000,1.0000,1.0000,4.0000
188.0000,2.1228,821.0000,1.0000,0.0000,13.0000,1.0000,1.0000,4.0000
259.0000,1.4532,1045.0000,1.0000,2.0000,13.0000,1.0000,1.0000,4.0000
150.0000,-0.0231,901.0000,1.0000,1.0000,13.0000,1.0000,1.0000,4.0000
220.0000,0.4373,998.0000,1.0000,2.0000,13.0000,1.0000,1.0000,4.0000
247.0000,2.8801,764.0000,0.0000,1.0000,13.0000,1.0000,1.0000,4.0000
174.0000,1.4906,1182.0000,1.0000,2.0000,13.0000,1.0000,1.0000,4.0000
174.0000,0.6041,771.0000,0.0000,2.0000,13.0000,1.0000,1.0000,4.0000
162.0000,1.0625,738.0000,1.0000,2.0000,13.0000,1.0000,1.0000,4.0000
198.0000,1.6210,1186.0000,0.0000,0.0000,13.0000,1.0000,1.0000,4.0000
150.0000,-0.0000,856.0000,1.0000,2.0000,13.0000,1.0000,1.0000,4.0000
150.0000,-0.0000,722.0000,1.0000,0.0000,13.0000,1.0000,1.0000,4.0000
150.0000,-0.0000,822.0000,1.0000,2.0000,13.0000,1.0000,1.0000,4.0000
150.0000,-0.0000,645.0000,1.0000,1.0000,13.0000,1.0000,1.0000,4.0000
227.0000,3.1481,751.0000,1.0000,2.0000,13.0000,1.0000,1.0000,4.0000
150.0000,-0.0000,692.0000,1.0000,1.0000,13.0000,1.0000,1.0000,4.0000
265.0000,0.1974,816.0000,0.0000,0.0000,13.0000,1.0000,1.0000,4.0000
180.0000,1.9610,542.0000,1.0000,1.0000,13.0000,1.0000,1.0000,4.0000
188.0000,1.6778,855.0000,1.0000,2.0000,13.0000,1.0000,1.0000,4.0000
177.0000,2.1232,699.0000,0.0000,2.0000,13.0000,1.0000,1.0000,4.0000
235.0000,0.0924,508.0000,0.0000,1.0000,13.0000,1.0000,1.0000,4.0000
159.0000,1.8440,767.0000,1.0000,0.0000,13.0000,1.0000,1.0000,4.0000
223.0000,1.9271,729.0000,0.0000,0.0000,13.0000,1.0000,1.0000,4.0000
172.0000,0.5730,704.0000,1.0000,2.0000,13.0000,1.0000,1.0000,4.0000
235.0000,1.9597,816.0000,0.0000,0.0000,13.0000,1.0000,1.0000,4.0000
181.0000,1.5220,620.0000,1.0000,2.0000,13.0000,1.0000,1.0000,4.0000
173.0000,2.2054,770.0000,1.0000,0.0000,13.0000,1.0000,1.0000,4.0000
244.0000,0.8284,888.0000,1.0000,2.0000,13.0000,1.0000,1.0000,4.0000
150.0000,1.2517,809.0000,0.0000,1.0000,13.0000,1.0000,1.0000,4.0000
182.0000,1.8055,853.0000,0.0000,0.0000,13.0000,1.0000,1.0000,4.0000
247.0000,2.3879,779.0000,1.0000,0.0000,13.0000,1.0000,1.0000,4.0000
160.0000,2.3909,578.0000,1.0000,1.0000,13.0000,1.0000,1.0000,4.0000
240.0000,2.0407,719.0000,1.0000,0.0000,13.0000,1.0000,1.0000,4.0000
208.0000,2.8971,740.0000,0.0000,0.0000,13.0000,1.0000,1.0000,4.0000
251.0000,1.0132,644.0000,1.0000,1.0000,13.0000,1.0000,1.0000,4.0000
184.0000,1.8132,835.0000,1.0000,1.0000,13.0000,1.0000,1.0000,4.0000
220.0000,1.4754,633.0000,1.0000,2.0000,13.0000,1.0000,1.0000,4.0000
236.0000,3.4092,892.0000,1.0000,0.0000,13.0000,1.0000,1.0000,4.0000
228.0000,2.4452,1029.0000,0.0000,1.0000,13.0000,1.0000,1.0000,4.0000
230.0000,1.6128,735.0000,1.0000,0.0000,13.0000,1.0000,1.0000,4.0000
208.0000,-0.5808,665.0000,1.0000,2.0000,13.0000,1.0000,1.0000,4.0000
176.0000,1.7726,708.0000,0.0000,2.0000,13.0000,1.0000,1.0000,4.0000
210.0000,-0.1427,622.0000,1.0000,2.0000,13.0000,1.0000,1.0000,4.0000
265.0000,3.0903,874.0000,1.0000,0.0000,13.0000,1.0000,1.0000,4.0000
176.0000,3.9253,833.0000,1.0000,2.0000,13.0000,1.0000,1.0000,4.0000
220.0000,2.3644,585.0000,1.0000,1.0000,13.0000,1.0000,1.0000,4.0000
239.0000,-0.6789,1322.0000,1.0000,1.0000,13.0000,1.0000,1.0000,4.0000
237.0000,3.5577,1138.0000,1.0000,1.0000,13.0000,1.0000,1.0000,4.0000
163.0000,0.8250,643.0000,1.0000,1.0000,13.0000,1.0000,1.0000,4.0000
167.0000,2.3711,880.0000,0.0000,2.0000,13.0000,1.0000,1.0000,4.0000
165.0000,1.2727,735.0000,1.0000,2.0000,13.0000,1.0000,1.0000,4.0000
163.0000,2.9440,876.0000,0.0000,2.0000,13.0000,1.0000,1.0000,4.0000
152.0000,1.8009,861.0000,1.0000,1.0000,13.0000,1.0000,1.0000,4.0000
195.0000,1.3775,862.0000,1.0000,0.0000,13.0000,1.0000,1.0000,4.0000
223.0000,2.5015,764.0000,1.0000,1.0000,13.0000,1.0000,1.0000,4.0000
150.0000,1.6180,713.0000,1.0000,1.0000,13.0000,1.0000,1.0000,4.0000
173.0000,1.1016,589.0000,1.0000,2.0000,13.0000,1.0000,1.0000,4.0000
178.0000,0.1799,837.0000,0.0000,1.0000,13.0000,1.0000,1.0000,4.0000
213.0000,1.4579,533.0000,0.0000,0.0000,13.0000,1.0000,1.0000,4.0000
201.0000,2.5587,797.0000,1.0000,0.0000,13.0000,1.0000,1.0000,4.0000
156.0000,0.8681,663.0000,1.0000,2.0000,13.0000,1.0000,1.0000,4.0000
249.0000,0.4128,655.0000,1.0000,0.0000,13.0000,1.0000,1.0000,4.0000
204.0000,1.2602,592.0000,1.0000,0.0000,13.0000,1.0000,1.0000,4.0000
234.0000,2.0364,673.0000,0.0000,0.0000,13.0000,1.0000,1.0000,4.0000
256.0000,1.7603,720.0000,1.0000,0.0000,13.0000,1.0000,1.0000,4.0000
207.0000,0.3971,644.0000,1.0000,0.0000,13.0000,1.0000,1.0000,4.0000
201.0000,2.3469,660.0000,1.0000,0.0000,13.0000,1.0000,1.0000,4.0000
213.0000,1.0456,840.0000,1.0000,2.0000,13.0000,1.0000,1.0000,4.0000
250.0000,2.6584,992.0000,0.0000,0.0000,13.0000,1.0000,1.0000,4.0000
244.0000,1.3687,995.0000,1.0000,2.0000,13.0000,1.0000,1.0000,4.0000
244.0000,3.0466,736.0000,1.0000,0.0000,13.0000,1.0000,1.0000,4.0000
259.0000,3.8740,993.0000,0.0000,0.0000,13.0000,1.0000,1.0000,4.0000
171.0000,2.6001,781.0000,1.0000,1.0000,13.0000,1.0000,1.0000,4.0000
202.0000,1.5186,806.0000,1.0000,2.0000,13.0000,1.0000,1.0000,4.0000
179.0000,0.3848,741.0000,1.0000,0.0000,13.0000,1.0000,1.0000,4.0000
224.0000,2.3675,981.0000,1.0000,2.0000,13.0000,1.0000,1.0000,4.0000
226.0000,0.8517,723.0000,0.0000,0.0000,13.0000,1.0000,1.0000,4.0000
152.0000,3.4412,1054.0000,0.0000,1.0000,13.0000,1.0000,1.0000,4.0000
192.0000,2.7116,816.0000,0.0000,1.0000,13.0000,1.0000,1.0000,4.0000
181.0000,0.0223,748.0000,1.0000,0.0000,13.0000,1.0000,1.0000,4.0000
260.0000,1.2874,813.0000,0.0000,1.0000,13.0000,1.0000,1.0000,4.0000
215.0000,3.0167,1113.0000,0.0000,2.0000,13.0000,1.0000,1.0000,4.0000
160.0000,3.2365,824.0000,1.0000,1.0000,13.0000,1.0000,1.0000,4.0000
198.0000,2.3734,860.0000,0.0000,0.0000,13.0000,1.0000,1.0000,4.0000
204.0000,1.4947,816.0000,1.0000,0.0000,13.0000,1.0000,1.0000,4.0000
205.0000,1.0044,1087.0000,1.0000,0.0000,13.0000,1.0000,1.0000,4.0000
167.0000,0.9108,938.0000,0.0000,2.0000,13.0000,1.0000,1.0000,4.0000
233.0000,2.9400,1076.0000,1.0000,0.0000,13.0000,1.0000,1.0000,4.0000
214.0000,3.0623,901.0000,1.0000,2.0000,13.0000,1.0000,1.0000,4.0000
176.0000,1.8252,893.0000,1.0000,2.0000,13.0000,1.0000,1.0000,4.0000
219.0000,2.8521,658.0000,1.0000,1.0000,13.0000,1.0000,1.0000,4.0000
182.0000,1.4371,809.0000,1.0000,1.0000,13.0000,1.0000,1.0000,4.0000
161.0000,-0.1093,952.0000,1.0000,2.0000,14.0000,1.0000,2.0000,4.0000
180.0000,1.9796,1020.0000,0.0000,0.0000,14.0000,1.0000,2.0000,4.0000
150.0000,1.8583,740.0000,1.0000,1.0000,14.0000,1.0000,2.0000,4.0000
150.0000,1.3725,716.0000,0.0000,1.0000,14.0000,1.0000,2.0000,4.0000
186.0000,0.3036,778.0000,1.0000,0.0000,14.0000,1.0000,2.0000,4.0000
196.0000,1.4609,822.0000,1.0000,2.0000,14.0000,1.0000,2.0000,4.0000
186.0000,1.7616,844.0000,1.0000,0.0000,14.0000,1.0000,2.0000,4.0000
224.0000,-0.4565,825.0000,1.0000,1.0000,14.0000,1.0000,2.0000,4.0000
179.0000,-0.3763,1032.0000,0.0000,1.0000,14.0000,1.0000,2.0000,4.0000
191.0000,0.8711,747.0000,0.0000,0.0000,14.0000,1.0000,2.0000,4.0000
176.0000,1.1376,551.0000,0.0000,2.0000,14.0000,1.0000,2.0000,4.0000
157.0000,0.3275,470.0000,1.0000,1.0000,14.0000,1.0000,2.0000,4.0000
185.0000,0.0726,848.0000,1.0000,2.0000,14.0000,1.0000,2.0000,4.0000
224.0000,1.9743,654.0000,1.0000,0.0000,14.0000,1.0000,2.0000,4.0000
230.0000,0.1588,605.0000,1.0000,2.0000,14.0000,1.0000,2.0000,4.0000
229.0000,3.2536,930.0000,0.0000,0.0000,14.0000,1.0000,2.0000,4.0000
150.0000,1.3331,972.0000,0.0000,2.0000,14.0000,1.0000,2.0000,4.0000
200.0000,3.2862,766.0000,1.0000,0.0000,14.0000,1.0000,2.0000,4.0000
226.0000,0.9045,966.0000,0.0000,0.0000,14.0000,1.0000,2.0000,4.0000
153.0000,0.4833,621.0000,1.0000,1.0000,14.0000,1.0000,2.0000,4.0000
162.0000,1.9862,696.0000,1.0000,1.0000,14.0000,1.0000,2.0000,4.0000
161.0000,1.8278,612.0000,0.0000,1.0000,14.0000,1.0000,2.0000,4.0000
154.0000,0.8314,615.0000,0.0000,1.0000,14.0000,1.0000,2.0000,4.0000
203.0000,0.8676,961.0000,0.0000,0.0000,14.0000,1.0000,2.0000,4.0000
268.0000,1.3094,911.0000,1.0000,1.0000,14.0000,1.0000,2.0000,4.0000
174.0000,1.6269,1026.0000,0.0000,2.0000,14.0000,1.0000,2.0000,4.0000
166.0000,2.4438,737.0000,1.0000,2.0000,14.0000,1.0000,2.0000,4.0000
195.0000,3.6680,727.0000,0.0000,0.0000,14.0000,1.0000,2.0000,4.0000
167.0000,2.9467,625.0000,1.0000,1.0000,14.0000,1.0000,2.0000,4.0000
176.0000,1.6590,602.0000,1.0000,1.0000,14.0000,1.0000,2.0000,4.0000
250.0000,1.2823,688.0000,1.0000,1.0000,14.0000,1.0000,2.0000,4.0000
166.0000,1.4465,1062.0000,0.0000,0.0000,14.0000,1.0000,2.0000,4.0000
199.0000,1.1917,722.0000,1.0000,2.0000,14.0000,1.0000,2.0000,4.0000
201.0000,1.6015,775.0000,0.0000,0.0000,14.0000,1.0000,2.0000,4.0000
150.0000,0.5158,579.0000,1.0000,2.0000,14.0000,1.0000,2.0000,4.0000
212.0000,0.5675,659.0000,1.0000,0.0000,14.0000,1.0000,2.0000,4.0000
159.0000,1.5031,1099.0000,0.0000,1.0000,14.0000,1.0000,2.0000,4.0000
192.0000,2.8742,907.0000,1.0000,0.0000,14.0000,1.0000,2.0000,4.0000
172.0000,0.2070,611.0000,0.0000,1.0000,14.0000,1.0000,2.0000,4.0000
166.0000,1.2937,586.0000,1.0000,2.0000,14.0000,1.0000,2.0000,4.0000
182.0000,1.2428,799.0000,1.0000,2.0000,14.0000,1.0000,2.0000,4.0000
177.0000,1.9491,705.0000,1.0000,1.0000,14.0000,1.0000,2.0000,4.0000
204.0000,1.4919,814.0000,0.0000,0.0000,14.0000,1.0000,2.0000,4.0000
187.0000,1.1170,1055.0000,1.0000,0.0000,14.0000,1.0000,2.0000,4.0000
164.0000,1.3190,817.0000,1.0000,2.0000,14.0000,1.0000,2.0000,4.0000
165.0000,1.8830,880.0000,1.0000,2.0000,14.0000,1.0000,2.0000,4.0000
198.0000,2.9994,749.0000,0.0000,0.0000,14.0000,1.0000,2.0000,4.0000
172.0000,1.2858,680.0000,1.0000,2.0000,14.0000,1.0000,2.0000,4.0000
165.0000,1.5256,668.0000,1.0000,2.0000,14.0000,1.0000,2.0000,4.0000
174.0000,0.4115,716.0000,1.0000,2.0000,14.0000,1.0000,2.0000,4.0000
167.0000,1.8907,689.0000,1.0000,1.0000,14.0000,1.0000,2.0000,4.0000
165.0000,0.3983,968.0000,1.0000,1.0000,14.0000,1.0000,2.0000,4.0000
183.0000,2.9373,800.0000,1.0000,0.0000,14.0000,1.0000,2.0000,4.0000
173.0000,1.2613,689.0000,1.0000,2.0000,14.0000,1.0000,2.0000,4.0000
219.0000,2.5638,649.0000,0.0000,0.0000,14.0000,1.0000,2.0000,4.0000
178.0000,1.8776,792.0000,1.0000,1.0000,14.0000,1.0000,2.0000,4.0000
159.0000,0.5266,777.0000,1.0000,1.0000,14.0000,1.0000,2.0000,4.0000
175.0000,2.4878,606.0000,1.0000,2.0000,14.0000,1.0000,2.0000,4.0000
168.0000,0.6431,599.0000,1.0000,1.0000,14.0000,1.0000,2.0000,4.0000
167.0000,0.4705,673.0000,1.0000,0.0000,14.0000,1.0000,2.0000,4.0000
210.0000,0.4702,708.0000,1.0000,0.0000,14.0000,1.0000,2.0000,4.0000
170.0000,0.9269,605.0000,1.0000,2.0000,14.0000,1.0000,2.0000,4.0000
233.0000,0.1131,665.0000,1.0000,1.0000,14.0000,1.0000,2.0000,4.0000
175.0000,0.6196,793.0000,1.0000,2.0000,14.0000,1.0000,2.0000,4.0000
176.0000,2.0904,610.0000,0.0000,1.0000,14.0000,1.0000,2.0000,4.0000
179.0000,1.7461,709.0000,0.0000,0.0000,14.0000,1.0000,2.0000,4.0000
169.0000,0.8590,724.0000,1.0000,1.0000,14.0000,1.0000,2.0000,4.0000
166.0000,1.6817,673.0000,1.0000,2.0000,14.0000,1.0000,2.0000,4.0000
165.0000,1.1277,660.0000,1.0000,2.0000,14.0000,1.0000,2.0000,4.0000
172.0000,1.4801,836.0000,1.0000,2.0000,14.0000,1.0000,2.0000,4.0000
150.0000,1.7338,625.0000,0.0000,1.0000,14.0000,1.0000,2.0000,4.0000
163.0000,1.0047,593.0000,1.0000,2.0000,14.0000,1.0000,2.0000,4.0000
167.0000,1.8218,631.0000,1.0000,2.0000,14.0000,1.0000,2.0000,4.0000
168.0000,1.2264,682.0000,1.0000,2.0000,14.0000,1.0000,2.0000,4.0000
157.0000,1.9165,847.0000,0.0000,1.0000,14.0000,1.0000,2.0000,4.0000
163.0000,1.5090,797.0000,1.0000,2.0000,14.0000,1.0000,2.0000,4.0000
158.0000,0.3295,828.0000,1.0000,1.0000,14.0000,1.0000,2.0000,4.0000
158.0000,0.3902,720.0000,1.0000,1.0000,14.0000,1.0000,2.0000,4.0000
150.0000,0.0753,656.0000,1.0000,1.0000,14.0000,1.0000,2.0000,4.0000
171.0000,0.6456,909.0000,1.0000,2.0000,14.0000,1.0000,2.0000,4.0000
151.0000,1.0345,680.0000,0.0000,0.0000,14.0000,1.0000,2.0000,4.0000
233.0000,0.7553,773.0000,1.0000,1.0000,14.0000,1.0000,2.0000,4.0000
163.0000,-0.0644,690.0000,1.0000,2.0000,14.0000,1.0000,2.0000,4.0000
163.0000,1.4187,1034.0000,0.0000,2.0000,14.0000,1.0000,2.0000,4.0000
207.0000,0.4836,870.0000,0.0000,0.0000,14.0000,1.0000,2.0000,4.0000
261.0000,1.4962,921.0000,0.0000,0.0000,14.0000,1.0000,2.0000,4.0000
167.0000,1.6376,822.0000,1.0000,2.0000,14.0000,1.0000,2.0000,4.0000
160.0000,1.5137,793.0000,1.0000,1.0000,14.0000,1.0000,2.0000,4.0000
156.0000,0.5560,748.0000,1.0000,1.0000,14.0000,1.0000,2.0000,4.0000
225.0000,0.5708,867.0000,1.0000,0.0000,14.0000,1.0000,2.0000,4.0000
196.0000,1.0097,864.0000,0.0000,2.0000,14.0000,1.0000,2.0000,4.0000
173.0000,0.7163,738.0000,1.0000,2.0000,14.0000,1.0000,2.0000,4.0000
230.0000,0.5442,916.0000,0.0000,0.0000,14.0000,1.0000,2.0000,4.0000
180.0000,1.6784,764.0000,1.0000,1.0000,14.0000,1.0000,2.0000,4.0000
158.0000,0.5037,994.0000,1.0000,1.0000,14.0000,1.0000,2.0000,4.0000
150.0000,0.5790,965.0000,0.0000,1.0000,14.0000,1.0000,2.0000,4.0000
183.0000,1.3488,755.0000,1.0000,0.0000,14.0000,1.0000,2.0000,4.0000
150.0000,2.3473,1074.0000,0.0000,1.0000,14.0000,1.0000,2.0000,4.0000
162.0000,1.1907,928.0000,0.0000,2.0000,14.0000,1.0000,2.0000,4.0000
175.0000,1.0631,735.0000,1.0000,2.0000,14.0000,1.0000,2.0000,4.0000
187.0000,2.0142,736.0000,1.0000,1.0000,14.0000,1.0000,2.0000,4.0000
191.0000,0.9160,599.0000,1.0000,0.0000,14.0000,1.0000,2.0000,4.0000
221.0000,0.6044,800.0000,1.0000,2.0000,14.0000,1.0000,2.0000,4.0000
179.0000,0.2519,679.0000,1.0000,1.0000,14.0000,1.0000,2.0000,4.0000
185.0000,1.0141,915.0000,1.0000,0.0000,14.0000,1.0000,2.0000,4.0000
157.0000,0.9418,1001.0000,0.0000,1.0000,14.0000,1.0000,2.0000,4.0000
156.0000,1.6993,882.0000,1.0000,2.0000,14.0000,1.0000,2.0000,4.0000
225.0000,1.4686,831.0000,0.0000,0.0000,14.0000,1.0000,2.0000,4.0000
238.0000,1.5095,868.0000,1.0000,2.0000,14.0000,1.0000,2.0000,4.0000
169.0000,0.6594,681.0000,1.0000,1.0000,14.0000,1.0000,2.0000,4.0000
172.0000,1.3347,807.0000,1.0000,1.0000,14.0000,1.0000,2.0000,4.0000
186.0000,1.5605,614.0000,1.0000,2.0000,14.0000,1.0000,2.0000,4.0000
220.0000,1.0092,751.0000,1.0000,0.0000,14.0000,1.0000,2.0000,4.0000
150.0000,0.4221,566.0000,1.0000,1.0000,14.0000,1.0000,2.0000,4.0000
167.0000,0.9107,837.0000,1.0000,1.0000,14.0000,1.0000,2.0000,4.0000
170.0000,0.7643,918.0000,1.0000,2.0000,14.0000,1.0000,2.0000,4.0000
236.0000,1.5122,948.0000,1.0000,0.0000,14.0000,1.0000,2.0000,4.0000
233.0000,0.9182,907.0000,1.0000,2.0000,14.0000,1.0000,2.0000,4.0000
151.0000,2.4252,898.0000,0.0000,1.0000,14.0000,1.0000,2.0000,4.0000
196.0000,3.1118,1082.0000,0.0000,0.0000,14.0000,1.0000,2.0000,4.0000
165.0000,0.9641,869.0000,0.0000,1.0000,14.0000,1.0000,2.0000,4.0000
176.0000,2.1422,1028.0000,0.0000,0.0000,14.0000,1.0000,2.0000,4.0000
156.0000,1.5625,811.0000,0.0000,1.0000,14.0000,1.0000,2.0000,4.0000
151.0000,0.5377,814.0000,1.0000,2.0000,14.0000,1.0000,2.0000,4.0000
157.0000,0.9978,660.0000,1.0000,1.0000,14.0000,1.0000,2.0000,4.0000
163.0000,0.9870,710.0000,1.0000,1.0000,14.0000,1.0000,2.0000,4.0000
193.0000,0.7194,1235.0000,0.0000,2.0000,14.0000,1.0000,2.0000,4.0000
186.0000,1.4637,1079.0000,1.0000,2.0000,14.0000,1.0000,2.0000,4.0000
206.0000,1.6410,896.0000,1.0000,0.0000,14.0000,1.0000,2.0000,4.0000
178.0000,1.5301,881.0000,1.0000,1.0000,14.0000,1.0000,2.0000,4.0000
183.0000,1.7150,766.0000,1.0000,2.0000,14.0000,1.0000,2.0000,4.0000
189.0000,1.8813,786.0000,1.0000,2.0000,14.0000,1.0000,2.0000,4.0000
150.0000,1.2836,1205.0000,1.0000,2.0000,14.0000,1.0000,2.0000,4.0000
150.0000,0.7147,736.0000,1.0000,0.0000,14.0000,1.0000,2.0000,4.0000
150.0000,-0.2640,618.0000,1.0000,0.0000,14.0000,1.0000,2.0000,4.0000
250.0000,1.3789,714.0000,0.0000,1.0000,14.0000,1.0000,2.0000,4.0000
226.0000,2.0777,869.0000,1.0000,0.0000,14.0000,1.0000,2.0000,4.0000
174.0000,1.2368,564.0000,0.0000,2.0000,14.0000,1.0000,2.0000,4.0000
175.0000,1.1179,604.0000,1.0000,1.0000,14.0000,1.0000,2.0000,4.0000
155.0000,2.2820,559.0000,1.0000,1.0000,14.0000,1.0000,2.0000,4.0000
160.0000,0.9089,737.0000,1.0000,1.0000,14.0000,1.0000,2.0000,4.0000
156.0000,1.6487,594.0000,1.0000,2.0000,14.0000,1.0000,2.0000,4.0000
157.0000,1.1772,802.0000,1.0000,2.0000,14.0000,1.0000,2.0000,4.0000
150.0000,0.2926,1850.0000,0.0000,0.0000,14.0000,1.0000,2.0000,4.0000
181.0000,2.1950,644.0000,1.0000,0.0000,14.0000,1.0000,2.0000,4.0000
175.0000,-0.2482,809.0000,1.0000,1.0000,14.0000,1.0000,2.0000,4.0000
176.0000,2.4333,509.0000,1.0000,0.0000,14.0000,1.0000,2.0000,4.0000
166.0000,1.2083,430.0000,1.0000,2.0000,14.0000,1.0000,2.0000,4.0000
173.0000,2.2038,696.0000,1.0000,0.0000,14.0000,1.0000,2.0000,4.0000
150.0000,0.3151,1340.0000,1.0000,0.0000,14.0000,1.0000,2.0000,4.0000
171.0000,2.1994,625.0000,0.0000,1.0000,14.0000,1.0000,2.0000,4.0000
216.0000,0.9966,601.0000,1.0000,0.0000,14.0000,1.0000,2.0000,4.0000
205.0000,2.6541,706.0000,1.0000,0.0000,14.0000,1.0000,2.0000,4.0000
234.0000,0.2492,859.0000,1.0000,2.0000,15.0000,1.0000,1.0000,5.0000
224.0000,0.6670,1315.0000,0.0000,0.0000,15.0000,1.0000,1.0000,5.0000
246.0000,1.2817,757.0000,0.0000,1.0000,15.0000,1.0000,1.0000,5.0000
206.0000,1.5074,966.0000,1.0000,1.0000,15.0000,1.0000,1.0000,5.0000
154.0000,0.8446,684.0000,1.0000,2.0000,15.0000,1.0000,1.0000,5.0000
162.0000,1.2940,722.0000,1.0000,2.0000,15.0000,1.0000,1.0000,5.0000
166.0000,1.7637,611.0000,0.0000,0.0000,15.0000,1.0000,1.0000,5.0000
156.0000,0.5687,777.0000,0.0000,2.0000,15.0000,1.0000,1.0000,5.0000
252.0000,1.5129,626.0000,1.0000,0.0000,15.0000,1.0000,1.0000,5.0000
165.0000,0.7292,659.0000,1.0000,2.0000,15.0000,1.0000,1.0000,5.0000
204.0000,0.7451,783.0000,1.0000,1.0000,15.0000,1.0000,1.0000,5.0000
159.0000,1.3868,844.0000,0.0000,1.0000,15.0000,1.0000,1.0000,5.0000
225.0000,-0.2599,1241.0000,0.0000,0.0000,15.0000,1.0000,1.0000,5.0000
227.0000,0.4437,743.0000,1.0000,0.0000,15.0000,1.0000,1.0000,5.0000
246.0000,0.4756,815.0000,1.0000,0.0000,15.0000,1.0000,1.0000,5.0000
170.0000,1.9029,554.0000,0.0000,1.0000,15.0000,1.0000,1.0000,5.0000
150.0000,1.0377,490.0000,1.0000,2.0000,15.0000,1.0000,1.0000,5.0000
160.0000,1.2700,531.0000,0.0000,1.0000,15.0000,1.0000,1.0000,5.0000
150.0000,0.7859,1069.0000,0.0000,2.0000,15.0000,1.0000,1.0000,5.0000
227.0000,0.5987,748.0000,1.0000,2.0000,15.0000,1.0000,1.0000,5.0000
231.0000,0.3805,643.0000,1.0000,2.0000,15.0000,1.0000,1.0000,5.0000
161.0000,1.3289,592.0000,1.0000,1.0000,15.0000,1.0000,1.0000,5.0000
154.0000,1.1274,509.0000,1.0000,2.0000,15.0000,1.0000,1.0000,5.0000
157.0000,1.1573,563.0000,1.0000,1.0000,15.0000,1.0000,1.0000,5.0000
153.0000,1.1676,935.0000,1.0000,2.0000,15.0000,1.0000,1.0000,5.0000
160.0000,0.6231,570.0000,1.0000,2.0000,15.0000,1.0000,1.0000,5.0000
224.0000,1.7728,548.0000,0.0000,1.0000,15.0000,1.0000,1.0000,5.0000
150.0000,1.0485,628.0000,1.0000,2.0000,15.0000,1.0000,1.0000,5.0000
211.0000,1.5976,1058.0000,1.0000,0.0000,15.0000,1.0000,1.0000,5.0000
150.0000,0.7387,513.0000,0.0000,2.0000,15.0000,1.0000,1.0000,5.0000
217.0000,1.3287,861.0000,1.0000,0.0000,15.0000,1.0000,1.0000,5.0000
150.0000,0.6917,409.0000,1.0000,1.0000,15.0000,1.0000,1.0000,5.0000
189.0000,0.5784,483.0000,1.0000,1.0000,15.0000,1.0000,1.0000,5.0000
177.0000,0.3751,635.0000,0.0000,1.0000,15.0000,1.0000,1.0000,5.0000
150.0000,0.9142,870.0000,1.0000,2.0000,15.0000,1.0000,1.0000,5.0000
225.0000,2.0594,817.0000,1.0000,0.0000,15.0000,1.0000,1.0000,5.0000
177.0000,0.6728,879.0000,1.0000,2.0000,15.0000,1.0000,1.0000,5.0000
214.0000,1.4998,845.0000,0.0000,1.0000,15.0000,1.0000,1.0000,5.0000
220.0000,0.6980,765.0000,0.0000,1.0000,15.0000,1.0000,1.0000,5.0000
261.0000,1.5649,780.0000,1.0000,1.0000,15.0000,1.0000,1.0000,5.0000
163.0000,0.9493,667.0000,1.0000,2.0000,15.0000,1.0000,1.0000,5.0000
161.0000,0.8756,633.0000,1.0000,2.0000,15.0000,1.0000,1.0000,5.0000
150.0000,1.1824,1084.0000,1.0000,2.0000,15.0000,1.0000,1.0000,5.0000
210.0000,0.3318,801.0000,0.0000,1.0000,15.0000,1.0000,1.0000,5.0000
150.0000,1.1919,824.0000,0.0000,2.0000,15.0000,1.0000,1.0000,5.0000
218.0000,0.9111,678.0000,1.0000,1.0000,15.0000,1.0000,1.0000,5.0000
254.0000,1.7281,853.0000,1.0000,0.0000,15.0000,1.0000,1.0000,5.0000
224.0000,0.0487,912.0000,0.0000,1.0000,15.0000,1.0000,1.0000,5.0000
216.0000,0.6300,626.0000,0.0000,1.0000,15.0000,1.0000,1.0000,5.0000
151.0000,1.6318,607.0000,1.0000,2.0000,15.0000,1.0000,1.0000,5.0000
216.0000,2.7080,545.0000,1.0000,0.0000,15.0000,1.0000,1.0000,5.0000
265.0000,2.0850,1072.0000,1.0000,0.0000,15.0000,1.0000,1.0000,5.0000
227.0000,2.3255,809.0000,1.0000,0.0000,15.0000,1.0000,1.0000,5.0000
182.0000,0.4560,427.0000,1.0000,1.0000,15.0000,1.0000,1.0000,5.0000
248.0000,1.2752,864.0000,1.0000,0.0000,15.0000,1.0000,1.0000,5.0000
170.0000,1.0031,926.0000,0.0000,1.0000,15.0000,1.0000,1.0000,5.0000
158.0000,0.8357,901.0000,1.0000,2.0000,15.0000,1.0000,1.0000,5.0000
165.0000,1.2004,673.0000,1.0000,2.0000,15.0000,1.0000,1.0000,5.0000
218.0000,1.1404,808.0000,1.0000,1.0000,15.0000,1.0000,1.0000,5.0000
241.0000,1.1122,835.0000,1.0000,1.0000,15.0000,1.0000,1.0000,5.0000
194.0000,3.7626,905.0000,0.0000,0.0000,15.0000,1.0000,1.0000,5.0000
166.0000,1.6109,802.0000,1.0000,1.0000,15.0000,1.0000,1.0000,5.0000
235.0000,2.2203,801.0000,0.0000,1.0000,15.0000,1.0000,1.0000,5.0000
192.0000,1.7224,913.0000,1.0000,0.0000,15.0000,1.0000,1.0000,5.0000
271.0000,0.6535,399.0000,0.0000,0.0000,15.0000,1.0000,1.0000,5.0000
192.0000,2.0244,1053.0000,0.0000,0.0000,15.0000,1.0000,1.0000,5.0000
230.0000,1.1235,774.0000,1.0000,0.0000,15.0000,1.0000,1.0000,5.0000
181.0000,1.0800,505.0000,1.0000,1.0000,15.0000,1.0000,1.0000,5.0000
162.0000,2.7634,515.0000,1.0000,1.0000,15.0000,1.0000,1.0000,5.0000
202.0000,1.9713,774.0000,1.0000,1.0000,15.0000,1.0000,1.0000,5.0000
183.0000,1.1118,1044.0000,0.0000,0.0000,15.0000,1.0000,1.0000,5.0000
240.0000,1.2915,1101.0000,1.0000,0.0000,15.0000,1.0000,1.0000,5.0000
159.0000,1.8147,1127.0000,1.0000,1.0000,15.0000,1.0000,1.0000,5.0000
157.0000,1.2870,1158.0000,1.0000,2.0000,15.0000,1.0000,1.0000,5.0000
157.0000,1.5237,709.0000,1.0000,2.0000,15.0000,1.0000,1.0000,5.0000
264.0000,0.5991,905.0000,1.0000,0.0000,15.0000,1.0000,1.0000,5.0000
166.0000,1.3292,1228.0000,1.0000,1.0000,15.0000,1.0000,1.0000,5.0000
162.0000,0.8293,991.0000,1.0000,2.0000,15.0000,1.0000,1.0000,5.0000
151.0000,1.0105,808.0000,1.0000,1.0000,15.0000,1.0000,1.0000,5.0000
150.0000,0.9180,746.0000,1.0000,2.0000,15.0000,1.0000,1.0000,5.0000
190.0000,1.1845,932.0000,1.0000,1.0000,15.0000,1.0000,1.0000,5.0000
225.0000,0.3481,663.0000,1.0000,2.0000,15.0000,1.0000,1.0000,5.0000
163.0000,0.9083,1183.0000,1.0000,2.0000,15.0000,1.0000,1.0000,5.0000
152.0000,1.1455,1358.0000,1.0000,2.0000,15.0000,1.0000,1.0000,5.0000
163.0000,1.5988,1450.0000,0.0000,0.0000,15.0000,1.0000,1.0000,5.0000
179.0000,0.5854,1076.0000,0.0000,1.0000,15.0000,1.0000,1.0000,5.0000
150.0000,0.8344,708.0000,1.0000,2.0000,15.0000,1.0000,1.0000,5.0000
219.0000,1.3303,882.0000,1.0000,1.0000,15.0000,1.0000,1.0000,5.0000
206.0000,0.9642,1375.0000,0.0000,0.0000,15.0000,1.0000,1.0000,5.0000
160.0000,1.5674,993.0000,1.0000,1.0000,15.0000,1.0000,1.0000,5.0000
177.0000,1.7089,871.0000,1.0000,0.0000,15.0000,1.0000,1.0000,5.0000
161.0000,1.0320,621.0000,0.0000,1.0000,15.0000,1.0000,1.0000,5.0000
212.0000,1.8148,916.0000,1.0000,0.0000,15.0000,1.0000,1.0000,5.0000
255.0000,1.2601,1065.0000,1.0000,0.0000,15.0000,1.0000,1.0000,5.0000
175.0000,1.4303,855.0000,1.0000,1.0000,15.0000,1.0000,1.0000,5.0000
227.0000,0.8920,868.0000,1.0000,0.0000,15.0000,1.0000,1.0000,5.0000
213.0000,3.5308,963.0000,0.0000,0.0000,15.0000,1.0000,1.0000,5.0000
157.0000,1.1490,787.0000,1.0000,2.0000,15.0000,1.0000,1.0000,5.0000
158.0000,0.9823,655.0000,1.0000,2.0000,15.0000,1.0000,1.0000,5.0000
224.0000,2.5558,750.0000,0.0000,0.0000,15.0000,1.0000,1.0000,5.0000
158.0000,1.1780,500.0000,1.0000,2.0000,15.0000,1.0000,1.0000,5.0000
164.0000,1.1945,788.0000,1.0000,1.0000,15.0000,1.0000,1.0000,5.0000
150.0000,1.3624,594.0000,1.0000,2.0000,15.0000,1.0000,1.0000,5.0000
150.0000,1.3846,1277.0000,0.0000,2.0000,15.0000,1.0000,1.0000,5.0000
233.0000,0.8582,701.0000,1.0000,1.0000,15.0000,1.0000,1.0000,5.0000
170.0000,1.3089,1004.0000,0.0000,1.0000,15.0000,1.0000,1.0000,5.0000
224.0000,0.2138,1003.0000,1.0000,1.0000,15.0000,1.0000,1.0000,5.0000
169.0000,1.2700,706.0000,1.0000,1.0000,15.0000,1.0000,1.0000,5.0000
156.0000,1.0792,1224.0000,0.0000,2.0000,15.0000,1.0000,1.0000,5.0000
172.0000,0.8527,1295.0000,0.0000,2.0000,15.0000,1.0000,1.0000,5.0000
158.0000,1.2012,1328.0000,1.0000,2.0000,15.0000,1.0000,1.0000,5.0000
254.0000,2.0341,1142.0000,0.0000,0.0000,15.0000,1.0000,1.0000,5.0000
152.0000,0.7472,944.0000,1.0000,2.0000,15.0000,1.0000,1.0000,5.0000
175.0000,1.0485,794.0000,1.0000,1.0000,15.0000,1.0000,1.0000,5.0000
168.0000,0.3030,722.0000,1.0000,0.0000,15.0000,1.0000,1.0000,5.0000
154.0000,1.6563,851.0000,1.0000,2.0000,15.0000,1.0000,1.0000,5.0000
238.0000,1.7429,682.0000,1.0000,1.0000,15.0000,1.0000,1.0000,5.0000
193.0000,1.2870,983.0000,1.0000,1.0000,15.0000,1.0000,1.0000,5.0000
235.0000,0.1632,1008.0000,1.0000,0.0000,15.0000,1.0000,1.0000,5.0000
240.0000,1.7621,1045.0000,1.0000,0.0000,15.0000,1.0000,1.0000,5.0000
165.0000,1.8866,821.0000,1.0000,1.0000,15.0000,1.0000,1.0000,5.0000
243.0000,2.7594,1075.0000,0.0000,0.0000,15.0000,1.0000,1.0000,5.0000
182.0000,0.9362,956.0000,1.0000,2.0000,15.0000,1.0000,1.0000,5.0000
196.0000,1.1430,1420.0000,1.0000,0.0000,15.0000,1.0000,1.0000,5.0000
229.0000,2.2257,1106.0000,1.0000,0.0000,15.0000,1.0000,1.0000,5.0000
154.0000,0.9265,1070.0000,1.0000,2.0000,15.0000,1.0000,1.0000,5.0000
167.0000,1.5577,628.0000,1.0000,2.0000,15.0000,1.0000,1.0000,5.0000
259.0000,0.9826,1087.0000,1.0000,0.0000,15.0000,1.0000,1.0000,5.0000
174.0000,1.4043,1300.0000,1.0000,1.0000,15.0000,1.0000,1.0000,5.0000
216.0000,0.4247,938.0000,1.0000,0.0000,15.0000,1.0000,1.0000,5.0000
159.0000,1.0070,977.0000,0.0000,1.0000,15.0000,1.0000,1.0000,5.0000
181.0000,1.2038,1123.0000,1.0000,1.0000,15.0000,1.0000,1.0000,5.0000
183.0000,1.6089,1051.0000,0.0000,1.0000,15.0000,1.0000,1.0000,5.0000
160.0000,1.9019,1043.0000,1.0000,1.0000,15.0000,1.0000,1.0000,5.0000
156.0000,0.6725,1213.0000,1.0000,2.0000,15.0000,1.0000,1.0000,5.0000
263.0000,1.6415,1051.0000,1.0000,0.0000,15.0000,1.0000,1.0000,5.0000
172.0000,1.5012,1360.0000,0.0000,1.0000,15.0000,1.0000,1.0000,5.0000
198.0000,1.1539,911.0000,1.0000,0.0000,15.0000,1.0000,1.0000,5.0000
196.0000,1.7356,1238.0000,1.0000,0.0000,15.0000,1.0000,1.0000,5.0000
161.0000,1.0139,716.0000,1.0000,2.0000,15.0000,1.0000,1.0000,5.0000
158.0000,1.6026,861.0000,1.0000,2.0000,15.0000,1.0000,1.0000,5.0000
151.0000,1.2022,813.0000,0.0000,2.0000,15.0000,1.0000,1.0000,5.0000
210.0000,1.4897,1154.0000,1.0000,0.0000,15.0000,1.0000,1.0000,5.0000
172.0000,1.4411,1181.0000,0.0000,2.0000,15.0000,1.0000,1.0000,5.0000
157.0000,0.8979,675.0000,1.0000,2.0000,15.0000,1.0000,1.0000,5.0000
150.0000,1.1758,630.0000,1.0000,2.0000,15.0000,1.0000,1.0000,5.0000
183.0000,0.8152,1040.0000,1.0000,2.0000,17.0000,1.0000,1.0000,6.0000
191.0000,1.5547,1217.0000,0.0000,1.0000,17.0000,1.0000,1.0000,6.0000
208.0000,0.5671,763.0000,1.0000,1.0000,17.0000,1.0000,1.0000,6.0000
166.0000,0.8670,967.0000,0.0000,2.0000,17.0000,1.0000,1.0000,6.0000
204.0000,1.4955,1193.0000,1.0000,0.0000,17.0000,1.0000,1.0000,6.0000
201.0000,1.3042,911.0000,1.0000,1.0000,17.0000,1.0000,1.0000,6.0000
150.0000,0.9538,722.0000,1.0000,2.0000,17.0000,1.0000,1.0000,6.0000
157.0000,1.3401,664.0000,1.0000,1.0000,17.0000,1.0000,1.0000,6.0000
260.0000,0.8461,1495.0000,1.0000,1.0000,17.0000,1.0000,1.0000,6.0000
150.0000,1.5114,821.0000,1.0000,2.0000,17.0000,1.0000,1.0000,6.0000
208.0000,3.7536,1046.0000,1.0000,0.0000,17.0000,1.0000,1.0000,6.0000
162.0000,0.9229,1114.0000,0.0000,1.0000,17.0000,1.0000,1.0000,6.0000
221.0000,1.8748,1238.0000,1.0000,0.0000,17.0000,1.0000,1.0000,6.0000
188.0000,1.3307,1601.0000,1.0000,2.0000,17.0000,1.0000,1.0000,6.0000
168.0000,1.6363,798.0000,1.0000,1.0000,17.0000,1.0000,1.0000,6.0000
181.0000,0.6953,680.0000,1.0000,2.0000,17.0000,1.0000,1.0000,6.0000
153.0000,1.1516,742.0000,1.0000,1.0000,17.0000,1.0000,1.0000,6.0000
174.0000,1.3647,818.0000,0.0000,1.0000,17.0000,1.0000,1.0000,6.0000
219.0000,0.5913,1057.0000,1.0000,1.0000,17.0000,1.0000,1.0000,6.0000
161.0000,0.9667,917.0000,1.0000,1.0000,17.0000,1.0000,1.0000,6.0000
190.0000,0.9703,530.0000,1.0000,1.0000,17.0000,1.0000,1.0000,6.0000
246.0000,1.8052,997.0000,1.0000,0.0000,17.0000,1.0000,1.0000,6.0000
269.0000,1.3709,820.0000,1.0000,0.0000,17.0000,1.0000,1.0000,6.0000
159.0000,1.0828,686.0000,1.0000,2.0000,17.0000,1.0000,1.0000,6.0000
170.0000,1.5122,645.0000,1.0000,0.0000,17.0000,1.0000,1.0000,6.0000
151.0000,0.7915,1227.0000,0.0000,2.0000,17.0000,1.0000,1.0000,6.0000
231.0000,2.7318,650.0000,1.0000,0.0000,17.0000,1.0000,1.0000,6.0000
161.0000,0.7545,1121.0000,1.0000,2.0000,17.0000,1.0000,1.0000,6.0000
150.0000,0.9546,1305.0000,1.0000,2.0000,17.0000,1.0000,1.0000,6.0000
206.0000,1.3717,1084.0000,1.0000,0.0000,17.0000,1.0000,1.0000,6.0000
159.0000,1.5148,805.0000,0.0000,2.0000,17.0000,1.0000,1.0000,6.0000
162.0000,1.4283,828.0000,1.0000,2.0000,17.0000,1.0000,1.0000,6.0000
193.0000,0.3667,1160.0000,0.0000,0.0000,17.0000,1.0000,1.0000,6.0000
268.0000,0.7196,892.0000,1.0000,0.0000,17.0000,1.0000,1.0000,6.0000
162.0000,1.9379,640.0000,0.0000,1.0000,17.0000,1.0000,1.0000,6.0000
178.0000,1.1468,789.0000,1.0000,1.0000,17.0000,1.0000,1.0000,6.0000
155.0000,1.1051,616.0000,1.0000,2.0000,17.0000,1.0000,1.0000,6.0000
160.0000,2.6715,432.0000,0.0000,1.0000,17.0000,1.0000,1.0000,6.0000
154.0000,2.1789,1460.0000,0.0000,0.0000,17.0000,1.0000,1.0000,6.0000
165.0000,0.7876,531.0000,1.0000,2.0000,17.0000,1.0000,1.0000,6.0000
176.0000,0.8103,707.0000,1.0000,1.0000,17.0000,1.0000,1.0000,6.0000
168.0000,0.7451,680.0000,1.0000,2.0000,17.0000,1.0000,1.0000,6.0000
198.0000,3.1816,1315.0000,1.0000,0.0000,17.0000,1.0000,1.0000,6.0000
207.0000,4.1033,781.0000,1.0000,0.0000,17.0000,1.0000,1.0000,6.0000
153.0000,1.5177,561.0000,0.0000,2.0000,17.0000,1.0000,1.0000,6.0000
201.0000,-0.6061,937.0000,1.0000,0.0000,17.0000,1.0000,1.0000,6.0000
166.0000,1.1679,601.0000,1.0000,2.0000,17.0000,1.0000,1.0000,6.0000
158.0000,1.4123,626.0000,1.0000,2.0000,17.0000,1.0000,1.0000,6.0000
160.0000,2.1718,592.0000,0.0000,1.0000,17.0000,1.0000,1.0000,6.0000
196.0000,-0.3973,710.0000,0.0000,0.0000,17.0000,1.0000,1.0000,6.0000
170.0000,0.8563,676.0000,1.0000,1.0000,17.0000,1.0000,1.0000,6.0000
179.0000,0.2783,580.0000,1.0000,2.0000,17.0000,1.0000,1.0000,6.0000
150.0000,-0.0000,871.0000,1.0000,2.0000,17.0000,1.0000,1.0000,6.0000
184.0000,-0.8064,678.0000,0.0000,0.0000,17.0000,1.0000,1.0000,6.0000
150.0000,1.7904,726.0000,1.0000,1.0000,17.0000,1.0000,1.0000,6.0000
154.0000,1.0979,564.0000,1.0000,2.0000,17.0000,1.0000,1.0000,6.0000
184.0000,2.7108,727.0000,0.0000,0.0000,17.0000,1.0000,1.0000,6.0000
150.0000,1.5830,749.0000,1.0000,1.0000,17.0000,1.0000,1.0000,6.0000
150.0000,-0.0000,721.0000,1.0000,1.0000,17.0000,1.0000,1.0000,6.0000
158.0000,1.3168,705.0000,1.0000,1.0000,17.0000,1.0000,1.0000,6.0000
211.0000,1.7453,800.0000,0.0000,0.0000,17.0000,1.0000,1.0000,6.0000
233.0000,1.4383,928.0000,1.0000,0.0000,17.0000,1.0000,1.0000,6.0000
238.0000,0.9900,836.0000,1.0000,0.0000,17.0000,1.0000,1.0000,6.0000
171.0000,0.9015,871.0000,1.0000,2.0000,17.0000,1.0000,1.0000,6.0000
150.0000,1.0976,591.0000,0.0000,1.0000,17.0000,1.0000,1.0000,6.0000
168.0000,1.5993,803.0000,1.0000,2.0000,17.0000,1.0000,1.0000,6.0000
207.0000,1.8848,758.0000,0.0000,0.0000,17.0000,1.0000,1.0000,6.0000
159.0000,1.4146,840.0000,1.0000,2.0000,17.0000,1.0000,1.0000,6.0000
162.0000,1.5615,1586.0000,1.0000,2.0000,17.0000,1.0000,1.0000,6.0000
172.0000,1.9865,711.0000,1.0000,1.0000,17.0000,1.0000,1.0000,6.0000
198.0000,0.1137,891.0000,1.0000,0.0000,17.0000,1.0000,1.0000,6.0000
178.0000,0.6492,1056.0000,1.0000,1.0000,17.0000,1.0000,1.0000,6.0000
168.0000,0.8483,654.0000,1.0000,1.0000,17.0000,1.0000,1.0000,6.0000
164.0000,1.7241,578.0000,1.0000,2.0000,17.0000,1.0000,1.0000,6.0000
179.0000,3.2719,792.0000,1.0000,0.0000,17.0000,1.0000,1.0000,6.0000
174.0000,1.1885,992.0000,1.0000,1.0000,17.0000,1.0000,1.0000,6.0000
171.0000,1.7143,503.0000,1.0000,1.0000,17.0000,1.0000,1.0000,6.0000
158.0000,0.9965,866.0000,1.0000,2.0000,17.0000,1.0000,1.0000,6.0000
150.0000,1.2122,632.0000,1.0000,2.0000,17.0000,1.0000,1.0000,6.0000
172.0000,1.8555,531.0000,1.0000,1.0000,17.0000,1.0000,1.0000,6.0000
155.0000,1.0696,692.0000,1.0000,2.0000,17.0000,1.0000,1.0000,6.0000
161.0000,1.8751,606.0000,1.0000,2.0000,17.0000,1.0000,1.0000,6.0000
181.0000,0.6750,641.0000,1.0000,1.0000,17.0000,1.0000,1.0000,6.0000
159.0000,3.1856,568.0000,1.0000,0.0000,17.0000,1.0000,1.0000,6.0000
177.0000,0.5748,846.0000,1.0000,1.0000,17.0000,1.0000,1.0000,6.0000
172.0000,0.5138,965.0000,1.0000,1.0000,17.0000,1.0000,1.0000,6.0000
150.0000,0.9738,573.0000,1.0000,2.0000,17.0000,1.0000,1.0000,6.0000
218.0000,0.6297,1333.0000,1.0000,1.0000,17.0000,1.0000,1.0000,6.0000
167.0000,1.0612,988.0000,0.0000,2.0000,17.0000,1.0000,1.0000,6.0000
150.0000,2.8479,823.0000,1.0000,0.0000,17.0000,1.0000,1.0000,6.0000
150.0000,0.8192,524.0000,1.0000,2.0000,17.0000,1.0000,1.0000,6.0000
177.0000,1.6788,572.0000,1.0000,1.0000,17.0000,1.0000,1.0000,6.0000
218.0000,1.2882,987.0000,0.0000,0.0000,17.0000,1.0000,1.0000,6.0000
186.0000,0.3939,1191.0000,0.0000,2.0000,17.0000,1.0000,1.0000,6.0000
177.0000,1.6675,586.0000,1.0000,1.0000,17.0000,1.0000,1.0000,6.0000
150.0000,0.9377,1114.0000,0.0000,2.0000,17.0000,1.0000,1.0000,6.0000
156.0000,0.8083,1145.0000,1.0000,2.0000,17.0000,1.0000,1.0000,6.0000
270.0000,3.0399,771.0000,1.0000,0.0000,17.0000,1.0000,1.0000,6.0000
175.0000,0.6702,612.0000,1.0000,1.0000,17.0000,1.0000,1.0000,6.0000
150.0000,-0.0000,500.0000,1.0000,1.0000,17.0000,1.0000,1.0000,6.0000
170.0000,2.0114,924.0000,1.0000,2.0000,17.0000,1.0000,1.0000,6.0000
216.0000,2.9308,793.0000,1.0000,0.0000,17.0000,1.0000,1.0000,6.0000
164.0000,1.0243,592.0000,1.0000,2.0000,17.0000,1.0000,1.0000,6.0000
169.0000,1.0462,1207.0000,0.0000,1.0000,17.0000,1.0000,1.0000,6.0000
255.0000,0.9496,1296.0000,1.0000,0.0000,17.0000,1.0000,1.0000,6.0000
166.0000,1.8839,1176.0000,1.0000,1.0000,17.0000,1.0000,1.0000,6.0000
156.0000,1.7151,527.0000,0.0000,1.0000,17.0000,1.0000,1.0000,6.0000
215.0000,0.7498,857.0000,1.0000,0.0000,17.0000,1.0000,1.0000,6.0000
150.0000,1.5101,590.0000,1.0000,1.0000,17.0000,1.0000,1.0000,6.0000
195.0000,2.0490,664.0000,0.0000,1.0000,17.0000,1.0000,1.0000,6.0000
248.0000,0.4575,513.0000,1.0000,0.0000,17.0000,1.0000,1.0000,6.0000
175.0000,1.4529,379.0000,1.0000,1.0000,17.0000,1.0000,1.0000,6.0000
182.0000,3.0018,680.0000,0.0000,0.0000,17.0000,1.0000,1.0000,6.0000
173.0000,1.4792,869.0000,1.0000,1.0000,17.0000,1.0000,1.0000,6.0000
150.0000,2.6315,596.0000,0.0000,0.0000,17.0000,1.0000,1.0000,6.0000
185.0000,0.6473,484.0000,1.0000,1.0000,17.0000,1.0000,1.0000,6.0000
218.0000,0.3568,812.0000,1.0000,0.0000,17.0000,1.0000,1.0000,6.0000
188.0000,1.1245,1149.0000,1.0000,2.0000,17.0000,1.0000,1.0000,6.0000
256.0000,1.4492,968.0000,1.0000,0.0000,17.0000,1.0000,1.0000,6.0000
150.0000,1.0088,827.0000,1.0000,2.0000,17.0000,1.0000,1.0000,6.0000
182.0000,1.3651,1095.0000,1.0000,0.0000,17.0000,1.0000,1.0000,6.0000
174.0000,1.2528,771.0000,1.0000,2.0000,17.0000,1.0000,1.0000,6.0000
172.0000,0.8869,621.0000,0.0000,2.0000,17.0000,1.0000,1.0000,6.0000
209.0000,0.6462,945.0000,1.0000,1.0000,17.0000,1.0000,1.0000,6.0000
208.0000,1.0577,665.0000,1.0000,1.0000,17.0000,1.0000,1.0000,6.0000
202.0000,3.7194,717.0000,1.0000,0.0000,17.0000,1.0000,1.0000,6.0000
183.0000,1.5157,501.0000,1.0000,1.0000,17.0000,1.0000,1.0000,6.0000
242.0000,1.5023,684.0000,1.0000,2.0000,17.0000,1.0000,1.0000,6.0000
270.0000,3.4680,946.0000,1.0000,0.0000,17.0000,1.0000,1.0000,6.0000
215.0000,1.5881,700.0000,0.0000,0.0000,17.0000,1.0000,1.0000,6.0000
216.0000,0.6770,710.0000,1.0000,2.0000,17.0000,1.0000,1.0000,6.0000
194.0000,1.5582,761.0000,0.0000,1.0000,17.0000,1.0000,1.0000,6.0000
175.0000,0.6261,581.0000,1.0000,2.0000,17.0000,1.0000,1.0000,6.0000
160.0000,1.2840,675.0000,1.0000,2.0000,17.0000,1.0000,1.0000,6.0000
171.0000,1.8114,999.0000,0.0000,2.0000,17.0000,1.0000,1.0000,6.0000
196.0000,1.7517,1276.0000,0.0000,1.0000,17.0000,1.0000,1.0000,6.0000
216.0000,-0.2546,876.0000,0.0000,0.0000,17.0000,1.0000,1.0000,6.0000
218.0000,1.6740,1112.0000,1.0000,1.0000,17.0000,1.0000,1.0000,6.0000
152.0000,0.5165,1281.0000,1.0000,2.0000,17.0000,1.0000,1.0000,6.0000
157.0000,1.0957,991.0000,1.0000,2.0000,17.0000,1.0000,1.0000,6.0000
248.0000,1.8703,733.0000,1.0000,0.0000,17.0000,1.0000,1.0000,6.0000
150.0000,1.0039,589.0000,0.0000,2.0000,17.0000,1.0000,1.0000,6.0000
164.0000,1.1432,786.0000,1.0000,2.0000,17.0000,1.0000,1.0000,6.0000
249.0000,2.2523,859.0000,0.0000,0.0000,17.0000,1.0000,1.0000,6.0000
168.0000,1.0061,626.0000,1.0000,1.0000,17.0000,1.0000,1.0000,6.0000
173.0000,0.8931,887.0000,1.0000,1.0000,17.0000,1.0000,1.0000,6.0000
160.0000,1.7598,600.0000,1.0000,2.0000,17.0000,1.0000,1.0000,6.0000
193.0000,3.5074,880.0000,0.0000,0.0000,17.0000,1.0000,1.0000,6.0000
195.0000,0.4062,1039.0000,0.0000,1.0000,18.0000,1.0000,2.0000,6.0000
184.0000,1.1772,583.0000,1.0000,1.0000,18.0000,1.0000,2.0000,6.0000
158.0000,0.9880,698.0000,1.0000,2.0000,18.0000,1.0000,2.0000,6.0000
195.0000,1.7631,642.0000,1.0000,1.0000,18.0000,1.0000,2.0000,6.0000
150.0000,1.1693,756.0000,0.0000,2.0000,18.0000,1.0000,2.0000,6.0000
171.0000,0.8482,1201.0000,1.0000,0.0000,18.0000,1.0000,2.0000,6.0000
191.0000,2.9835,738.0000,1.0000,0.0000,18.0000,1.0000,2.0000,6.0000
158.0000,1.6534,819.0000,1.0000,1.0000,18.0000,1.0000,2.0000,6.0000
159.0000,1.1925,882.0000,1.0000,2.0000,18.0000,1.0000,2.0000,6.0000
168.0000,0.5190,674.0000,1.0000,2.0000,18.0000,1.0000,2.0000,6.0000
159.0000,0.9066,808.0000,1.0000,2.0000,18.0000,1.0000,2.0000,6.0000
